{
  "resourceType": "Bundle",
  "id": "62aa5ec5c4be4c506d4a5347",
  "type": "transaction",
  "entry": [ {
    "fullUrl": "https://madie.cms.gov/Patient/3ecce155-635d-47ec-b35d-d53126423a81",
    "resource": {
      "resourceType": "Patient",
      "id": "3ecce155-635d-47ec-b35d-d53126423a81",
      "meta": {
        "profile": [ "http://hl7.org/fhir/us/qicore/StructureDefinition/qicore-patient" ]
      },
      "extension": [ {
        "url": "http://hl7.org/fhir/us/core/StructureDefinition/us-core-race",
        "extension": [ {
          "url": "ombCategory",
          "valueCoding": {
            "system": "urn:oid:2.16.840.1.113883.6.238",
            "code": "2028-9",
            "display": "Asian",
            "userSelected": true
          }
        }, {
          "url": "text",
          "valueString": "Asian"
        } ]
      }, {
        "url": "http://hl7.org/fhir/us/core/StructureDefinition/us-core-ethnicity",
        "extension": [ {
          "url": "ombCategory",
          "valueCoding": {
            "system": "urn:oid:2.16.840.1.113883.6.238",
            "code": "2186-5",
            "display": "Not Hispanic or Latino",
            "userSelected": true
          }
        }, {
          "url": "text",
          "valueString": "Not Hispanic or Latino"
        } ]
      } ],
      "identifier": [ {
        "type": {
          "coding": [ {
            "system": "http://terminology.hl7.org/CodeSystem/v2-0203",
            "code": "MR"
          } ]
        },
        "system": "https://bonnie-fhir.healthit.gov/",
        "value": "62aa5ec5c4be4c506d4a5347"
      } ],
      "name": [ {
        "family": "DENEXPass",
        "given": [ "PalliativeCareObservation" ]
      } ],
      "gender": "female",
      "birthDate": "2001-01-01"
    },
    "request": {
      "method": "PUT",
      "url": "Patient/3ecce155-635d-47ec-b35d-d53126423a81"
    }
  }, {
    "fullUrl": "https://madie.cms.gov/Encounter/7f4a1751-8dcd-4503-844f-3a4b3628a904",
    "resource": {
      "resourceType": "Encounter",
      "id": "7f4a1751-8dcd-4503-844f-3a4b3628a904",
      "meta": {
        "profile": [ "http://hl7.org/fhir/us/qicore/StructureDefinition/qicore-encounter" ]
      },
      "status": "finished",
      "class": {
        "system": "http://terminology.hl7.org/CodeSystem/v3-ActCode",
        "code": "AMB",
        "display": "ambulatory"
      },
      "type": [ {
        "coding": [ {
          "system": "http://snomed.info/sct",
          "version": "2022-03",
          "code": "10197000",
          "display": "Psychiatric interview and evaluation (procedure)",
          "userSelected": true
        } ]
      } ],
      "subject": {
        "reference": "Patient/3ecce155-635d-47ec-b35d-d53126423a81"
      },
      "period": {
        "start": "2026-01-01T00:00:00.000+00:00",
        "end": "2026-01-01T00:30:00.000+00:00"
      }
    },
    "request": {
      "method": "PUT",
      "url": "Encounter/7f4a1751-8dcd-4503-844f-3a4b3628a904"
    }
  }, {
    "fullUrl": "https://madie.cms.gov/Observation/61df738b-263c-4423-a473-f5ee1f17b321",
    "resource": {
      "resourceType": "Observation",
      "id": "61df738b-263c-4423-a473-f5ee1f17b321",
      "meta": {
        "profile": [ "http://hl7.org/fhir/us/qicore/StructureDefinition/qicore-observation-screening-assessment" ]
      },
      "status": "amended",
      "category": [ {
        "coding": [ {
          "system": "http://terminology.hl7.org/CodeSystem/observation-category",
          "code": "survey",
          "display": "survey",
          "userSelected": true
        } ]
      } ],
      "code": {
        "coding": [ {
          "system": "http://loinc.org",
          "code": "71007-9",
          "display": "Functional Assessment of Chronic Illness Therapy - Palliative Care Questionnaire (FACIT-Pal)",
          "userSelected": true
        } ]
      },
      "subject": {
        "reference": "Patient/3ecce155-635d-47ec-b35d-d53126423a81"
      },
      "effectiveDateTime": "2026-06-01T08:00:00.000+00:00"
    },
    "request": {
      "method": "PUT",
      "url": "Observation/61df738b-263c-4423-a473-f5ee1f17b321"
    }
  }, {
    "fullUrl": "https://madie.cms.gov/Coverage/4811316b-dbfc-4e2c-b81e-b83ab5c85041",
    "resource": {
      "resourceType": "Coverage",
      "id": "4811316b-dbfc-4e2c-b81e-b83ab5c85041",
      "meta": {
        "profile": [ "http://hl7.org/fhir/us/qicore/StructureDefinition/qicore-coverage" ]
      },
      "status": "active",
      "beneficiary": {
        "reference": "Patient/3ecce155-635d-47ec-b35d-d53126423a81"
      },
      "payor": [ {
        "reference": "Organization/4c011f8d-83f8-40de-a782-c972b328ca28"
      } ]
    },
    "request": {
      "method": "PUT",
      "url": "Coverage/4811316b-dbfc-4e2c-b81e-b83ab5c85041"
    }
  }, {
    "fullUrl": "https://madie.cms.gov/Organization/4c011f8d-83f8-40de-a782-c972b328ca28",
    "resource": {
      "resourceType": "Organization",
      "id": "4c011f8d-83f8-40de-a782-c972b328ca28",
      "meta": {
        "profile": [ "http://hl7.org/fhir/us/qicore/StructureDefinition/qicore-organization" ]
      },
      "identifier": [ {
        "use": "temp",
        "system": "urn:oid:2.16.840.1.113883.4.4",
        "value": "21-3259825"
      } ],
      "active": true,
      "type": [ {
        "coding": [ {
          "system": "http://terminology.hl7.org/CodeSystem/organization-type",
          "code": "pay",
          "display": "Payer"
        } ]
      } ],
      "name": "Blue Cross Blue Shield of Texas",
      "telecom": [ {
        "system": "phone",
        "value": "(+1) 972-766-6900"
      } ],
      "address": [ {
        "use": "billing",
        "type": "postal",
        "line": [ "P.O. Box 660044" ],
        "city": "Dallas",
        "state": "TX",
        "postalCode": "75266-0044",
        "country": "USA"
      } ]
    },
    "request": {
      "method": "PUT",
      "url": "Organization/4c011f8d-83f8-40de-a782-c972b328ca28"
    }
  }, {
    "fullUrl": "https://madie.cms.gov/MeasureReport/76c45ed0-1cb9-4820-be83-6e8c15c23c36",
    "resource": {
      "resourceType": "MeasureReport",
      "id": "76c45ed0-1cb9-4820-be83-6e8c15c23c36",
      "meta": {
        "profile": [ "http://hl7.org/fhir/us/cqfmeasures/StructureDefinition/test-case-cqfm" ]
      },
      "contained": [ {
        "resourceType": "Parameters",
        "id": "eec54dcb-ef40-422d-b6a0-c3b93a07b918-parameters",
        "parameter": [ {
          "name": "subject",
          "valueString": "3ecce155-635d-47ec-b35d-d53126423a81"
        } ]
      } ],
      "extension": [ {
        "url": "http://hl7.org/fhir/StructureDefinition/cqf-inputParameters",
        "valueReference": {
          "reference": "#eec54dcb-ef40-422d-b6a0-c3b93a07b918-parameters"
        }
      }, {
        "url": "http://hl7.org/fhir/us/cqfmeasures/StructureDefinition/cqfm-testCaseDescription",
        "valueMarkdown": "Encounter during MP, functional assessment for palliative care questionnaire, expected to pass denex d/t palliative care"
      } ],
      "modifierExtension": [ {
        "url": "http://hl7.org/fhir/us/cqfmeasures/StructureDefinition/cqfm-isTestCase",
        "valueBoolean": true
      } ],
      "status": "complete",
      "type": "individual",
      "measure": "https://madie.cms.gov/Measure/CMS69FHIRPCSBMIScreenAndFollowUp",
      "period": {
        "start": "2026-01-01",
        "end": "2026-12-31"
      },
      "group": [ {
        "id": "Group_1",
        "population": [ {
          "id": "InitialPopulation_1",
          "code": {
            "coding": [ {
              "system": "http://terminology.hl7.org/CodeSystem/measure-population",
              "code": "initial-population",
              "display": "Initial Population"
            } ]
          },
          "count": 1
        }, {
          "id": "Denominator_1",
          "code": {
            "coding": [ {
              "system": "http://terminology.hl7.org/CodeSystem/measure-population",
              "code": "denominator",
              "display": "Denominator"
            } ]
          },
          "count": 1
        }, {
          "id": "DenominatorExclusion_1",
          "code": {
            "coding": [ {
              "system": "http://terminology.hl7.org/CodeSystem/measure-population",
              "code": "denominator-exclusion",
              "display": "Denominator Exclusion"
            } ]
          },
          "count": 1
        }, {
          "id": "Numerator_1",
          "code": {
            "coding": [ {
              "system": "http://terminology.hl7.org/CodeSystem/measure-population",
              "code": "numerator",
              "display": "Numerator"
            } ]
          },
          "count": 0
        }, {
          "id": "DenominatorException_1",
          "code": {
            "coding": [ {
              "system": "http://terminology.hl7.org/CodeSystem/measure-population",
              "code": "denominator-exception",
              "display": "Denominator Exception"
            } ]
          },
          "count": 0
        } ],
        "measureScore": {
          "value": 1.0
        }
      } ],
      "evaluatedResource": [ {
        "reference": "Patient/3ecce155-635d-47ec-b35d-d53126423a81"
      }, {
        "reference": "Encounter/7f4a1751-8dcd-4503-844f-3a4b3628a904"
      }, {
        "reference": "Observation/61df738b-263c-4423-a473-f5ee1f17b321"
      }, {
        "reference": "Coverage/4811316b-dbfc-4e2c-b81e-b83ab5c85041"
      }, {
        "reference": "Organization/4c011f8d-83f8-40de-a782-c972b328ca28"
      } ]
    },
    "request": {
      "method": "PUT",
      "url": "MeasureReport/76c45ed0-1cb9-4820-be83-6e8c15c23c36"
    }
  } ]
}