{
  "resourceType": "Bundle",
  "id": "62df0a935db91778f87ca903",
  "type": "transaction",
  "entry": [ {
    "fullUrl": "https://madie.cms.gov/Patient/c3caf126-12a2-473f-8f51-1c7828d63d16",
    "resource": {
      "resourceType": "Patient",
      "id": "c3caf126-12a2-473f-8f51-1c7828d63d16",
      "meta": {
        "profile": [ "http://hl7.org/fhir/us/qicore/StructureDefinition/qicore-patient" ]
      },
      "extension": [ {
        "url": "http://hl7.org/fhir/us/core/StructureDefinition/us-core-race",
        "extension": [ {
          "url": "ombCategory",
          "valueCoding": {
            "system": "urn:oid:2.16.840.1.113883.6.238",
            "code": "2106-3",
            "display": "White",
            "userSelected": true
          }
        }, {
          "url": "text",
          "valueString": "White"
        } ]
      }, {
        "url": "http://hl7.org/fhir/us/core/StructureDefinition/us-core-ethnicity",
        "extension": [ {
          "url": "ombCategory",
          "valueCoding": {
            "system": "urn:oid:2.16.840.1.113883.6.238",
            "code": "2186-5",
            "display": "Not Hispanic or Latino",
            "userSelected": true
          }
        }, {
          "url": "text",
          "valueString": "Not Hispanic or Latino"
        } ]
      } ],
      "identifier": [ {
        "type": {
          "coding": [ {
            "system": "http://terminology.hl7.org/CodeSystem/v2-0203",
            "code": "MR"
          } ]
        },
        "system": "https://bonnie-fhir.healthit.gov/",
        "value": "62df0a935db91778f87ca903"
      } ],
      "name": [ {
        "family": "NUMERPass",
        "given": [ "HighBMIAndInterventionOrderedReferral" ]
      } ],
      "gender": "unknown",
      "birthDate": "1957-11-07"
    },
    "request": {
      "method": "PUT",
      "url": "Patient/c3caf126-12a2-473f-8f51-1c7828d63d16"
    }
  }, {
    "fullUrl": "https://madie.cms.gov/Encounter/7689a981-3a43-4bdc-a2ee-42b5523a0288",
    "resource": {
      "resourceType": "Encounter",
      "id": "7689a981-3a43-4bdc-a2ee-42b5523a0288",
      "meta": {
        "profile": [ "http://hl7.org/fhir/us/qicore/StructureDefinition/qicore-encounter" ]
      },
      "status": "finished",
      "class": {
        "system": "http://terminology.hl7.org/CodeSystem/v3-ActCode",
        "code": "AMB",
        "display": "ambulatory"
      },
      "type": [ {
        "coding": [ {
          "system": "http://snomed.info/sct",
          "version": "2022-03",
          "code": "10197000",
          "display": "Psychiatric interview and evaluation (procedure)",
          "userSelected": true
        } ]
      } ],
      "subject": {
        "reference": "Patient/c3caf126-12a2-473f-8f51-1c7828d63d16"
      },
      "period": {
        "start": "2026-01-01T00:00:00.000+00:00",
        "end": "2026-01-01T00:30:00.000+00:00"
      }
    },
    "request": {
      "method": "PUT",
      "url": "Encounter/7689a981-3a43-4bdc-a2ee-42b5523a0288"
    }
  }, {
    "fullUrl": "https://madie.cms.gov/Observation/7d0a50a7-bc22-4468-9fc1-03c819fe8518",
    "resource": {
      "resourceType": "Observation",
      "id": "7d0a50a7-bc22-4468-9fc1-03c819fe8518",
      "meta": {
        "profile": [ "http://hl7.org/fhir/us/core/StructureDefinition/us-core-bmi" ]
      },
      "status": "corrected",
      "category": [ {
        "coding": [ {
          "system": "http://terminology.hl7.org/CodeSystem/observation-category",
          "code": "vital-signs",
          "display": "Vital Signs"
        } ]
      } ],
      "code": {
        "coding": [ {
          "system": "http://loinc.org",
          "code": "39156-5",
          "display": "Body mass index (BMI) [Ratio]",
          "userSelected": true
        } ]
      },
      "subject": {
        "reference": "Patient/c3caf126-12a2-473f-8f51-1c7828d63d16"
      },
      "effectiveDateTime": "2026-01-01T00:30:00.000+00:00",
      "valueQuantity": {
        "value": 25,
        "unit": "kg/m2",
        "system": "http://unitsofmeasure.org",
        "code": "kg/m2"
      }
    },
    "request": {
      "method": "PUT",
      "url": "Observation/7d0a50a7-bc22-4468-9fc1-03c819fe8518"
    }
  }, {
    "fullUrl": "https://madie.cms.gov/ServiceRequest/ce6d388e-09fe-4254-9485-d2e9c1dc5f1d",
    "resource": {
      "resourceType": "ServiceRequest",
      "id": "ce6d388e-09fe-4254-9485-d2e9c1dc5f1d",
      "meta": {
        "profile": [ "http://hl7.org/fhir/us/qicore/StructureDefinition/qicore-servicerequest" ]
      },
      "status": "active",
      "intent": "order",
      "code": {
        "coding": [ {
          "system": "http://snomed.info/sct",
          "version": "2022-03",
          "code": "183515008",
          "display": "Referral to physician (procedure)",
          "userSelected": true
        } ]
      },
      "subject": {
        "reference": "Patient/c3caf126-12a2-473f-8f51-1c7828d63d16"
      },
      "authoredOn": "2026-01-01T00:30:00.000+00:00",
      "reasonCode": [ {
        "coding": [ {
          "system": "http://hl7.org/fhir/sid/icd-10-cm",
          "code": "E66.01",
          "display": "Morbid (severe) obesity due to excess calories",
          "userSelected": true
        } ]
      } ]
    },
    "request": {
      "method": "PUT",
      "url": "ServiceRequest/ce6d388e-09fe-4254-9485-d2e9c1dc5f1d"
    }
  }, {
    "fullUrl": "https://madie.cms.gov/Coverage/9e7ce994-2f03-4abb-b420-ae2bfbc0bc2a",
    "resource": {
      "resourceType": "Coverage",
      "id": "9e7ce994-2f03-4abb-b420-ae2bfbc0bc2a",
      "meta": {
        "profile": [ "http://hl7.org/fhir/us/qicore/StructureDefinition/qicore-coverage" ]
      },
      "status": "active",
      "beneficiary": {
        "reference": "Patient/c3caf126-12a2-473f-8f51-1c7828d63d16"
      },
      "payor": [ {
        "reference": "Organization/0d5b48b0-efeb-45ba-80a3-d210d5062829"
      } ]
    },
    "request": {
      "method": "PUT",
      "url": "Coverage/9e7ce994-2f03-4abb-b420-ae2bfbc0bc2a"
    }
  }, {
    "fullUrl": "https://madie.cms.gov/Organization/0d5b48b0-efeb-45ba-80a3-d210d5062829",
    "resource": {
      "resourceType": "Organization",
      "id": "0d5b48b0-efeb-45ba-80a3-d210d5062829",
      "meta": {
        "profile": [ "http://hl7.org/fhir/us/qicore/StructureDefinition/qicore-organization" ]
      },
      "identifier": [ {
        "use": "temp",
        "system": "urn:oid:2.16.840.1.113883.4.4",
        "value": "21-3259825"
      } ],
      "active": true,
      "type": [ {
        "coding": [ {
          "system": "http://terminology.hl7.org/CodeSystem/organization-type",
          "code": "pay",
          "display": "Payer"
        } ]
      } ],
      "name": "Blue Cross Blue Shield of Texas",
      "telecom": [ {
        "system": "phone",
        "value": "(+1) 972-766-6900"
      } ],
      "address": [ {
        "use": "billing",
        "type": "postal",
        "line": [ "P.O. Box 660044" ],
        "city": "Dallas",
        "state": "TX",
        "postalCode": "75266-0044",
        "country": "USA"
      } ]
    },
    "request": {
      "method": "PUT",
      "url": "Organization/0d5b48b0-efeb-45ba-80a3-d210d5062829"
    }
  }, {
    "fullUrl": "https://madie.cms.gov/MeasureReport/1c05e533-b69a-4f01-bcc1-7bce057c9a1b",
    "resource": {
      "resourceType": "MeasureReport",
      "id": "1c05e533-b69a-4f01-bcc1-7bce057c9a1b",
      "meta": {
        "profile": [ "http://hl7.org/fhir/us/cqfmeasures/StructureDefinition/test-case-cqfm" ]
      },
      "contained": [ {
        "resourceType": "Parameters",
        "id": "0759c8e8-b726-4476-8721-7936bcb5fdea-parameters",
        "parameter": [ {
          "name": "subject",
          "valueString": "c3caf126-12a2-473f-8f51-1c7828d63d16"
        } ]
      } ],
      "extension": [ {
        "url": "http://hl7.org/fhir/StructureDefinition/cqf-inputParameters",
        "valueReference": {
          "reference": "#0759c8e8-b726-4476-8721-7936bcb5fdea-parameters"
        }
      }, {
        "url": "http://hl7.org/fhir/us/cqfmeasures/StructureDefinition/cqfm-testCaseDescription",
        "valueMarkdown": "Enc first day of during MP,  BMI high @ 25 kg/m2  with intervention ordered - referral and  reason code"
      } ],
      "modifierExtension": [ {
        "url": "http://hl7.org/fhir/us/cqfmeasures/StructureDefinition/cqfm-isTestCase",
        "valueBoolean": true
      } ],
      "status": "complete",
      "type": "individual",
      "measure": "https://madie.cms.gov/Measure/CMS69FHIRPCSBMIScreenAndFollowUp",
      "period": {
        "start": "2026-01-01",
        "end": "2026-12-31"
      },
      "group": [ {
        "id": "Group_1",
        "population": [ {
          "id": "InitialPopulation_1",
          "code": {
            "coding": [ {
              "system": "http://terminology.hl7.org/CodeSystem/measure-population",
              "code": "initial-population",
              "display": "Initial Population"
            } ]
          },
          "count": 1
        }, {
          "id": "Denominator_1",
          "code": {
            "coding": [ {
              "system": "http://terminology.hl7.org/CodeSystem/measure-population",
              "code": "denominator",
              "display": "Denominator"
            } ]
          },
          "count": 1
        }, {
          "id": "DenominatorExclusion_1",
          "code": {
            "coding": [ {
              "system": "http://terminology.hl7.org/CodeSystem/measure-population",
              "code": "denominator-exclusion",
              "display": "Denominator Exclusion"
            } ]
          },
          "count": 0
        }, {
          "id": "Numerator_1",
          "code": {
            "coding": [ {
              "system": "http://terminology.hl7.org/CodeSystem/measure-population",
              "code": "numerator",
              "display": "Numerator"
            } ]
          },
          "count": 1
        }, {
          "id": "DenominatorException_1",
          "code": {
            "coding": [ {
              "system": "http://terminology.hl7.org/CodeSystem/measure-population",
              "code": "denominator-exception",
              "display": "Denominator Exception"
            } ]
          },
          "count": 0
        } ],
        "measureScore": {
          "value": 1.0
        }
      } ],
      "evaluatedResource": [ {
        "reference": "Patient/c3caf126-12a2-473f-8f51-1c7828d63d16"
      }, {
        "reference": "Encounter/7689a981-3a43-4bdc-a2ee-42b5523a0288"
      }, {
        "reference": "Observation/7d0a50a7-bc22-4468-9fc1-03c819fe8518"
      }, {
        "reference": "ServiceRequest/ce6d388e-09fe-4254-9485-d2e9c1dc5f1d"
      }, {
        "reference": "Coverage/9e7ce994-2f03-4abb-b420-ae2bfbc0bc2a"
      }, {
        "reference": "Organization/0d5b48b0-efeb-45ba-80a3-d210d5062829"
      } ]
    },
    "request": {
      "method": "PUT",
      "url": "MeasureReport/1c05e533-b69a-4f01-bcc1-7bce057c9a1b"
    }
  } ]
}