{
  "resourceType": "Bundle",
  "id": "Patient-9-NumPass-FutureFallRiskScreened",
  "type": "transaction",
  "entry": [ {
    "fullUrl": "https://madie.cms.gov/Patient/67723351-e3ad-40b1-be93-e4b7cd7b92f0",
    "resource": {
      "resourceType": "Patient",
      "id": "67723351-e3ad-40b1-be93-e4b7cd7b92f0",
      "meta": {
        "profile": [ "http://hl7.org/fhir/us/qicore/StructureDefinition/qicore-patient" ]
      },
      "extension": [ {
        "url": "http://hl7.org/fhir/us/core/StructureDefinition/us-core-race",
        "extension": [ {
          "url": "ombCategory",
          "valueCoding": {
            "system": "urn:oid:2.16.840.1.113883.6.238",
            "code": "2028-9",
            "display": "Asian"
          }
        }, {
          "url": "text",
          "valueString": "Asian"
        } ]
      }, {
        "url": "http://hl7.org/fhir/us/core/StructureDefinition/us-core-ethnicity",
        "extension": [ {
          "url": "ombCategory",
          "valueCoding": {
            "system": "urn:oid:2.16.840.1.113883.6.238",
            "code": "2135-2",
            "display": "Hispanic or Latino"
          }
        }, {
          "url": "text",
          "valueString": "Hispanic or Latino"
        } ]
      } ],
      "identifier": [ {
        "system": "http://hospital.smarthealthit.org",
        "value": "999999995"
      } ],
      "name": [ {
        "family": "Bertha",
        "given": [ "Betty" ]
      } ],
      "gender": "female",
      "birthDate": "1961-01-01"
    },
    "request": {
      "method": "PUT",
      "url": "Patient/67723351-e3ad-40b1-be93-e4b7cd7b92f0"
    }
  }, {
    "fullUrl": "https://madie.cms.gov/Encounter/46fb1224-7b8f-45ba-8b39-1bdd90d1a834",
    "resource": {
      "resourceType": "Encounter",
      "id": "46fb1224-7b8f-45ba-8b39-1bdd90d1a834",
      "meta": {
        "profile": [ "http://hl7.org/fhir/us/qicore/StructureDefinition/qicore-encounter" ]
      },
      "status": "finished",
      "class": {
        "system": "http://terminology.hl7.org/CodeSystem/v3-ActCode",
        "code": "AMB",
        "display": "ambulatory"
      },
      "type": [ {
        "coding": [ {
          "system": "http://snomed.info/sct",
          "code": "78831002",
          "display": "Comprehensive eye examination (procedure)"
        } ]
      } ],
      "subject": {
        "reference": "Patient/67723351-e3ad-40b1-be93-e4b7cd7b92f0"
      },
      "period": {
        "start": "2026-01-01T00:00:00.000+00:00",
        "end": "2026-01-01T00:15:00.000+00:00"
      }
    },
    "request": {
      "method": "PUT",
      "url": "Encounter/46fb1224-7b8f-45ba-8b39-1bdd90d1a834"
    }
  }, {
    "fullUrl": "https://madie.cms.gov/Observation/d70a2d88-ed41-4290-b9f3-2e7f539928f8",
    "resource": {
      "resourceType": "Observation",
      "id": "d70a2d88-ed41-4290-b9f3-2e7f539928f8",
      "meta": {
        "profile": [ "http://hl7.org/fhir/us/qicore/StructureDefinition/qicore-observation-screening-assessment" ]
      },
      "status": "final",
      "category": [ {
        "coding": [ {
          "system": "http://terminology.hl7.org/CodeSystem/observation-category",
          "code": "survey"
        } ]
      } ],
      "code": {
        "coding": [ {
          "system": "http://loinc.org",
          "code": "52552-7",
          "display": "Falls in the past year"
        } ]
      },
      "subject": {
        "reference": "Patient/67723351-e3ad-40b1-be93-e4b7cd7b92f0"
      },
      "effectivePeriod": {
        "start": "2026-01-01T00:00:00.000+00:00",
        "end": "2026-01-01T00:15:00.000+00:00"
      },
      "valueCodeableConcept": {
        "coding": [ {
          "system": "http://snomed.info/sct",
          "code": "373066001",
          "display": "Yes (qualifier value)"
        } ]
      }
    },
    "request": {
      "method": "PUT",
      "url": "Observation/d70a2d88-ed41-4290-b9f3-2e7f539928f8"
    }
  }, {
    "fullUrl": "https://madie.cms.gov/MeasureReport/12ff2de1-915c-4fbf-bfdd-b9d5d41bdfeb",
    "resource": {
      "resourceType": "MeasureReport",
      "id": "12ff2de1-915c-4fbf-bfdd-b9d5d41bdfeb",
      "meta": {
        "profile": [ "http://hl7.org/fhir/us/cqfmeasures/StructureDefinition/test-case-cqfm" ]
      },
      "contained": [ {
        "resourceType": "Parameters",
        "id": "bc9ea40b-8258-41f9-a153-bc106024dc79-parameters",
        "parameter": [ {
          "name": "subject",
          "valueString": "67723351-e3ad-40b1-be93-e4b7cd7b92f0"
        } ]
      } ],
      "extension": [ {
        "url": "http://hl7.org/fhir/StructureDefinition/cqf-inputParameters",
        "valueReference": {
          "reference": "#bc9ea40b-8258-41f9-a153-bc106024dc79-parameters"
        }
      }, {
        "url": "http://hl7.org/fhir/us/cqfmeasures/StructureDefinition/cqfm-testCaseDescription",
        "valueMarkdown": "Patient that has a future falls risk screening done."
      } ],
      "modifierExtension": [ {
        "url": "http://hl7.org/fhir/us/cqfmeasures/StructureDefinition/cqfm-isTestCase",
        "valueBoolean": true
      } ],
      "status": "complete",
      "type": "individual",
      "measure": "https://madie.cms.gov/Measure/CMS139FHIRFallsScreeningForFutureFallRisk",
      "period": {
        "start": "2026-01-01",
        "end": "2026-12-31"
      },
      "group": [ {
        "id": "Group_1",
        "population": [ {
          "id": "InitialPopulation_1",
          "code": {
            "coding": [ {
              "system": "http://terminology.hl7.org/CodeSystem/measure-population",
              "code": "initial-population",
              "display": "Initial Population"
            } ]
          },
          "count": 1
        }, {
          "id": "Denominator_1",
          "code": {
            "coding": [ {
              "system": "http://terminology.hl7.org/CodeSystem/measure-population",
              "code": "denominator",
              "display": "Denominator"
            } ]
          },
          "count": 1
        }, {
          "id": "DenominatorExclusion_1",
          "code": {
            "coding": [ {
              "system": "http://terminology.hl7.org/CodeSystem/measure-population",
              "code": "denominator-exclusion",
              "display": "Denominator Exclusion"
            } ]
          },
          "count": 0
        }, {
          "id": "Numerator_1",
          "code": {
            "coding": [ {
              "system": "http://terminology.hl7.org/CodeSystem/measure-population",
              "code": "numerator",
              "display": "Numerator"
            } ]
          },
          "count": 1
        } ],
        "measureScore": {
          "value": 1.0
        }
      } ],
      "evaluatedResource": [ {
        "reference": "Patient/67723351-e3ad-40b1-be93-e4b7cd7b92f0"
      }, {
        "reference": "Encounter/46fb1224-7b8f-45ba-8b39-1bdd90d1a834"
      }, {
        "reference": "Observation/d70a2d88-ed41-4290-b9f3-2e7f539928f8"
      } ]
    },
    "request": {
      "method": "PUT",
      "url": "MeasureReport/12ff2de1-915c-4fbf-bfdd-b9d5d41bdfeb"
    }
  } ]
}