{
  "resourceType": "Bundle",
  "id": "62fbe41abf5132f90ee35d36",
  "type": "transaction",
  "entry": [ {
    "fullUrl": "https://madie.cms.gov/Patient/7b34e64e-e7fe-402c-9a26-12da90662897",
    "resource": {
      "resourceType": "Patient",
      "id": "7b34e64e-e7fe-402c-9a26-12da90662897",
      "meta": {
        "profile": [ "http://hl7.org/fhir/us/qicore/StructureDefinition/qicore-patient" ]
      },
      "extension": [ {
        "url": "http://hl7.org/fhir/us/core/StructureDefinition/us-core-race",
        "extension": [ {
          "url": "ombCategory",
          "valueCoding": {
            "system": "urn:oid:2.16.840.1.113883.6.238",
            "code": "2054-5",
            "display": "Black or African American",
            "userSelected": true
          }
        }, {
          "url": "text",
          "valueString": "Black or African American"
        } ]
      }, {
        "url": "http://hl7.org/fhir/us/core/StructureDefinition/us-core-ethnicity",
        "extension": [ {
          "url": "ombCategory",
          "valueCoding": {
            "system": "urn:oid:2.16.840.1.113883.6.238",
            "code": "2186-5",
            "display": "Not Hispanic or Latino",
            "userSelected": true
          }
        }, {
          "url": "text",
          "valueString": "Not Hispanic or Latino"
        } ]
      } ],
      "identifier": [ {
        "type": {
          "coding": [ {
            "system": "http://terminology.hl7.org/CodeSystem/v2-0203",
            "code": "MR"
          } ]
        },
        "system": "https://bonnie-fhir.healthit.gov/",
        "value": "62fbe41abf5132f90ee35d36"
      } ],
      "name": [ {
        "family": "DENEXPass",
        "given": [ "DischargeToHospiceFacilityDuringMP" ]
      } ],
      "gender": "male",
      "birthDate": "1946-10-15"
    },
    "request": {
      "method": "PUT",
      "url": "Patient/7b34e64e-e7fe-402c-9a26-12da90662897"
    }
  }, {
    "fullUrl": "https://madie.cms.gov/Encounter/81edfbcf-4f91-46c1-9090-711abbf2343b",
    "resource": {
      "resourceType": "Encounter",
      "id": "81edfbcf-4f91-46c1-9090-711abbf2343b",
      "meta": {
        "profile": [ "http://hl7.org/fhir/us/qicore/StructureDefinition/qicore-encounter" ]
      },
      "status": "finished",
      "class": {
        "system": "http://terminology.hl7.org/CodeSystem/v3-ActCode",
        "code": "AMB",
        "display": "ambulatory"
      },
      "type": [ {
        "coding": [ {
          "system": "http://snomed.info/sct",
          "version": "2022-03",
          "code": "10197000",
          "display": "Psychiatric interview and evaluation (procedure)",
          "userSelected": true
        } ]
      } ],
      "subject": {
        "reference": "Patient/7b34e64e-e7fe-402c-9a26-12da90662897"
      },
      "period": {
        "start": "2026-12-31T23:30:00.000+00:00",
        "end": "2026-12-31T23:59:00.000+00:00"
      }
    },
    "request": {
      "method": "PUT",
      "url": "Encounter/81edfbcf-4f91-46c1-9090-711abbf2343b"
    }
  }, {
    "fullUrl": "https://madie.cms.gov/Observation/3af844a2-30d4-4219-8f41-29d1a01b8fa7",
    "resource": {
      "resourceType": "Observation",
      "id": "3af844a2-30d4-4219-8f41-29d1a01b8fa7",
      "meta": {
        "profile": [ "http://hl7.org/fhir/us/qicore/StructureDefinition/qicore-simple-observation" ]
      },
      "status": "final",
      "category": [ {
        "coding": [ {
          "system": "http://terminology.hl7.org/CodeSystem/observation-category",
          "code": "procedure",
          "display": "Procedure"
        } ]
      } ],
      "code": {
        "coding": [ {
          "system": "http://loinc.org",
          "code": "39156-5",
          "display": "Body mass index (BMI) [Ratio]",
          "userSelected": true
        } ]
      },
      "subject": {
        "reference": "Patient/7b34e64e-e7fe-402c-9a26-12da90662897"
      },
      "effectiveDateTime": "2026-12-31T23:59:00.000+00:00",
      "valueQuantity": {
        "value": 40.0,
        "unit": "kg/m2",
        "system": "https://ucum.org",
        "code": "kg/m2"
      }
    },
    "request": {
      "method": "PUT",
      "url": "Observation/3af844a2-30d4-4219-8f41-29d1a01b8fa7"
    }
  }, {
    "fullUrl": "https://madie.cms.gov/Procedure/3d4c6c3e-499e-44af-8352-d06d87f5a0cd",
    "resource": {
      "resourceType": "Procedure",
      "id": "3d4c6c3e-499e-44af-8352-d06d87f5a0cd",
      "meta": {
        "profile": [ "http://hl7.org/fhir/us/qicore/StructureDefinition/qicore-procedure" ]
      },
      "extension": [ {
        "url": "http://hl7.org/fhir/us/qicore/StructureDefinition/qicore-recorded",
        "valueDateTime": "2026-12-31T23:59:00.000+00:00"
      } ],
      "status": "completed",
      "code": {
        "coding": [ {
          "system": "http://snomed.info/sct",
          "version": "2022-03",
          "code": "182922004",
          "display": "Dietary regime (regime/therapy)",
          "userSelected": true
        } ]
      },
      "subject": {
        "reference": "Patient/7b34e64e-e7fe-402c-9a26-12da90662897"
      },
      "performedDateTime": "2026-12-31T23:59:00.000+00:00",
      "reasonCode": [ {
        "coding": [ {
          "system": "http://hl7.org/fhir/sid/icd-10-cm",
          "code": "E66.01",
          "display": "Morbid (severe) obesity due to excess calories",
          "userSelected": true
        } ]
      } ]
    },
    "request": {
      "method": "PUT",
      "url": "Procedure/3d4c6c3e-499e-44af-8352-d06d87f5a0cd"
    }
  }, {
    "fullUrl": "https://madie.cms.gov/Encounter/a7848230-2dcd-4b42-8d5d-86ddb69bcd6d",
    "resource": {
      "resourceType": "Encounter",
      "id": "a7848230-2dcd-4b42-8d5d-86ddb69bcd6d",
      "meta": {
        "profile": [ "http://hl7.org/fhir/us/qicore/StructureDefinition/qicore-encounter" ]
      },
      "status": "finished",
      "class": {
        "system": "http://terminology.hl7.org/CodeSystem/v3-ActCode",
        "code": "AMB",
        "display": "ambulatory"
      },
      "type": [ {
        "coding": [ {
          "system": "http://snomed.info/sct",
          "version": "2022-03",
          "code": "183452005",
          "display": "Emergency hospital admission (procedure)",
          "userSelected": true
        } ]
      } ],
      "subject": {
        "reference": "Patient/7b34e64e-e7fe-402c-9a26-12da90662897"
      },
      "period": {
        "start": "2026-02-28T23:30:00.000+00:00",
        "end": "2026-02-28T23:59:00.000+00:00"
      },
      "hospitalization": {
        "dischargeDisposition": {
          "coding": [ {
            "system": "http://snomed.info/sct",
            "code": "428371000124100",
            "display": "Discharge to healthcare facility for hospice care (procedure)",
            "userSelected": true
          } ]
        }
      }
    },
    "request": {
      "method": "PUT",
      "url": "Encounter/a7848230-2dcd-4b42-8d5d-86ddb69bcd6d"
    }
  }, {
    "fullUrl": "https://madie.cms.gov/Coverage/d82ca34b-cdb1-4af3-84db-e008d877f0ad",
    "resource": {
      "resourceType": "Coverage",
      "id": "d82ca34b-cdb1-4af3-84db-e008d877f0ad",
      "meta": {
        "profile": [ "http://hl7.org/fhir/us/qicore/StructureDefinition/qicore-coverage" ]
      },
      "status": "active",
      "beneficiary": {
        "reference": "Patient/7b34e64e-e7fe-402c-9a26-12da90662897"
      },
      "payor": [ {
        "reference": "Organization/3ebce3f1-608f-40d8-b21c-e5f688ac908d"
      } ]
    },
    "request": {
      "method": "PUT",
      "url": "Coverage/d82ca34b-cdb1-4af3-84db-e008d877f0ad"
    }
  }, {
    "fullUrl": "https://madie.cms.gov/Organization/3ebce3f1-608f-40d8-b21c-e5f688ac908d",
    "resource": {
      "resourceType": "Organization",
      "id": "3ebce3f1-608f-40d8-b21c-e5f688ac908d",
      "meta": {
        "profile": [ "http://hl7.org/fhir/us/qicore/StructureDefinition/qicore-organization" ]
      },
      "identifier": [ {
        "use": "temp",
        "system": "urn:oid:2.16.840.1.113883.4.4",
        "value": "21-3259825"
      } ],
      "active": true,
      "type": [ {
        "coding": [ {
          "system": "http://terminology.hl7.org/CodeSystem/organization-type",
          "code": "pay",
          "display": "Payer"
        } ]
      } ],
      "name": "Blue Cross Blue Shield of Texas",
      "telecom": [ {
        "system": "phone",
        "value": "(+1) 972-766-6900"
      } ],
      "address": [ {
        "use": "billing",
        "type": "postal",
        "line": [ "P.O. Box 660044" ],
        "city": "Dallas",
        "state": "TX",
        "postalCode": "75266-0044",
        "country": "USA"
      } ]
    },
    "request": {
      "method": "PUT",
      "url": "Organization/3ebce3f1-608f-40d8-b21c-e5f688ac908d"
    }
  }, {
    "fullUrl": "https://madie.cms.gov/MeasureReport/b06e8cfc-4851-4cb6-94a3-1249288f2a65",
    "resource": {
      "resourceType": "MeasureReport",
      "id": "b06e8cfc-4851-4cb6-94a3-1249288f2a65",
      "meta": {
        "profile": [ "http://hl7.org/fhir/us/cqfmeasures/StructureDefinition/test-case-cqfm" ]
      },
      "contained": [ {
        "resourceType": "Parameters",
        "id": "9dd4eeea-2d09-41e0-8d1f-6375cc6467bd-parameters",
        "parameter": [ {
          "name": "subject",
          "valueString": "7b34e64e-e7fe-402c-9a26-12da90662897"
        } ]
      } ],
      "extension": [ {
        "url": "http://hl7.org/fhir/StructureDefinition/cqf-inputParameters",
        "valueReference": {
          "reference": "#9dd4eeea-2d09-41e0-8d1f-6375cc6467bd-parameters"
        }
      }, {
        "url": "http://hl7.org/fhir/us/cqfmeasures/StructureDefinition/cqfm-testCaseDescription",
        "valueMarkdown": "Patient age 79 and has 2 encs. during the MP.  February inpatient encounter discharge to healthcare facility for hospice care. December enc. BMI 40 kg/m2, and dietary recommend made due to dx  of \"Morbid (severe) obesity due to excess calories\" "
      } ],
      "modifierExtension": [ {
        "url": "http://hl7.org/fhir/us/cqfmeasures/StructureDefinition/cqfm-isTestCase",
        "valueBoolean": true
      } ],
      "status": "complete",
      "type": "individual",
      "measure": "https://madie.cms.gov/Measure/CMS69FHIRPCSBMIScreenAndFollowUp",
      "period": {
        "start": "2026-01-01",
        "end": "2026-12-31"
      },
      "group": [ {
        "id": "Group_1",
        "population": [ {
          "id": "InitialPopulation_1",
          "code": {
            "coding": [ {
              "system": "http://terminology.hl7.org/CodeSystem/measure-population",
              "code": "initial-population",
              "display": "Initial Population"
            } ]
          },
          "count": 1
        }, {
          "id": "Denominator_1",
          "code": {
            "coding": [ {
              "system": "http://terminology.hl7.org/CodeSystem/measure-population",
              "code": "denominator",
              "display": "Denominator"
            } ]
          },
          "count": 1
        }, {
          "id": "DenominatorExclusion_1",
          "code": {
            "coding": [ {
              "system": "http://terminology.hl7.org/CodeSystem/measure-population",
              "code": "denominator-exclusion",
              "display": "Denominator Exclusion"
            } ]
          },
          "count": 1
        }, {
          "id": "Numerator_1",
          "code": {
            "coding": [ {
              "system": "http://terminology.hl7.org/CodeSystem/measure-population",
              "code": "numerator",
              "display": "Numerator"
            } ]
          },
          "count": 0
        }, {
          "id": "DenominatorException_1",
          "code": {
            "coding": [ {
              "system": "http://terminology.hl7.org/CodeSystem/measure-population",
              "code": "denominator-exception",
              "display": "Denominator Exception"
            } ]
          },
          "count": 0
        } ],
        "measureScore": {
          "value": 1.0
        }
      } ],
      "evaluatedResource": [ {
        "reference": "Patient/7b34e64e-e7fe-402c-9a26-12da90662897"
      }, {
        "reference": "Encounter/81edfbcf-4f91-46c1-9090-711abbf2343b"
      }, {
        "reference": "Observation/3af844a2-30d4-4219-8f41-29d1a01b8fa7"
      }, {
        "reference": "Procedure/3d4c6c3e-499e-44af-8352-d06d87f5a0cd"
      }, {
        "reference": "Encounter/a7848230-2dcd-4b42-8d5d-86ddb69bcd6d"
      }, {
        "reference": "Coverage/d82ca34b-cdb1-4af3-84db-e008d877f0ad"
      }, {
        "reference": "Organization/3ebce3f1-608f-40d8-b21c-e5f688ac908d"
      } ]
    },
    "request": {
      "method": "PUT",
      "url": "MeasureReport/b06e8cfc-4851-4cb6-94a3-1249288f2a65"
    }
  } ]
}