{
  "resourceType": "Bundle",
  "id": "62fbef57bf5132f90ee35d41",
  "type": "transaction",
  "entry": [ {
    "fullUrl": "https://madie.cms.gov/Patient/a0aacdbc-4954-48af-aa88-361ea7e32736",
    "resource": {
      "resourceType": "Patient",
      "id": "a0aacdbc-4954-48af-aa88-361ea7e32736",
      "meta": {
        "profile": [ "http://hl7.org/fhir/us/qicore/StructureDefinition/qicore-patient" ]
      },
      "extension": [ {
        "url": "http://hl7.org/fhir/us/core/StructureDefinition/us-core-race",
        "extension": [ {
          "url": "ombCategory",
          "valueCoding": {
            "system": "urn:oid:2.16.840.1.113883.6.238",
            "code": "2106-3",
            "display": "White",
            "userSelected": true
          }
        }, {
          "url": "text",
          "valueString": "White"
        } ]
      }, {
        "url": "http://hl7.org/fhir/us/core/StructureDefinition/us-core-ethnicity",
        "extension": [ {
          "url": "ombCategory",
          "valueCoding": {
            "system": "urn:oid:2.16.840.1.113883.6.238",
            "code": "2186-5",
            "display": "Not Hispanic or Latino",
            "userSelected": true
          }
        }, {
          "url": "text",
          "valueString": "Not Hispanic or Latino"
        } ]
      } ],
      "identifier": [ {
        "type": {
          "coding": [ {
            "system": "http://terminology.hl7.org/CodeSystem/v2-0203",
            "code": "MR"
          } ]
        },
        "system": "https://bonnie-fhir.healthit.gov/",
        "value": "62fbef57bf5132f90ee35d41"
      } ],
      "name": [ {
        "family": "NUMERFail",
        "given": [ "HighBMIAndConditionEndsBeforeInterventionPerformed" ]
      } ],
      "gender": "unknown",
      "birthDate": "1957-11-07"
    },
    "request": {
      "method": "PUT",
      "url": "Patient/a0aacdbc-4954-48af-aa88-361ea7e32736"
    }
  }, {
    "fullUrl": "https://madie.cms.gov/Encounter/569cd502-61fd-4400-a2ff-eb0a7d0a3d78",
    "resource": {
      "resourceType": "Encounter",
      "id": "569cd502-61fd-4400-a2ff-eb0a7d0a3d78",
      "meta": {
        "profile": [ "http://hl7.org/fhir/us/qicore/StructureDefinition/qicore-encounter" ]
      },
      "status": "finished",
      "class": {
        "system": "http://terminology.hl7.org/CodeSystem/v3-ActCode",
        "code": "AMB",
        "display": "ambulatory"
      },
      "type": [ {
        "coding": [ {
          "system": "http://snomed.info/sct",
          "version": "2022-03",
          "code": "10197000",
          "display": "Psychiatric interview and evaluation (procedure)",
          "userSelected": true
        } ]
      } ],
      "subject": {
        "reference": "Patient/a0aacdbc-4954-48af-aa88-361ea7e32736"
      },
      "period": {
        "start": "2026-12-31T23:30:00.000+00:00",
        "end": "2026-12-31T23:59:00.000+00:00"
      }
    },
    "request": {
      "method": "PUT",
      "url": "Encounter/569cd502-61fd-4400-a2ff-eb0a7d0a3d78"
    }
  }, {
    "fullUrl": "https://madie.cms.gov/Observation/78618711-76e5-417c-93b6-d5c75ffcdaaa",
    "resource": {
      "resourceType": "Observation",
      "id": "78618711-76e5-417c-93b6-d5c75ffcdaaa",
      "meta": {
        "profile": [ "http://hl7.org/fhir/us/core/StructureDefinition/us-core-bmi" ]
      },
      "status": "final",
      "category": [ {
        "coding": [ {
          "system": "http://terminology.hl7.org/CodeSystem/observation-category",
          "code": "vital-signs",
          "display": "Vital Signs"
        } ]
      } ],
      "code": {
        "coding": [ {
          "system": "http://loinc.org",
          "code": "39156-5",
          "display": "Body mass index (BMI) [Ratio]",
          "userSelected": true
        } ]
      },
      "subject": {
        "reference": "Patient/a0aacdbc-4954-48af-aa88-361ea7e32736"
      },
      "effectiveDateTime": "2026-06-15T08:05:00.000+00:00",
      "valueQuantity": {
        "value": 30.0,
        "unit": "kg/m2",
        "system": "http://unitsofmeasure.org",
        "code": "kg/m2"
      }
    },
    "request": {
      "method": "PUT",
      "url": "Observation/78618711-76e5-417c-93b6-d5c75ffcdaaa"
    }
  }, {
    "fullUrl": "https://madie.cms.gov/Procedure/b85d015c-f126-43bb-8faf-11270caca7d4",
    "resource": {
      "resourceType": "Procedure",
      "id": "b85d015c-f126-43bb-8faf-11270caca7d4",
      "meta": {
        "profile": [ "http://hl7.org/fhir/us/qicore/StructureDefinition/qicore-procedure" ]
      },
      "extension": [ {
        "url": "http://hl7.org/fhir/us/qicore/StructureDefinition/qicore-recorded",
        "valueDateTime": "2026-12-31T23:59:00.000+00:00"
      } ],
      "status": "completed",
      "code": {
        "coding": [ {
          "system": "http://snomed.info/sct",
          "version": "2022-03",
          "code": "182922004",
          "display": "Dietary regime (regime/therapy)",
          "userSelected": true
        } ]
      },
      "subject": {
        "reference": "Patient/a0aacdbc-4954-48af-aa88-361ea7e32736"
      },
      "performedDateTime": "2026-12-31T23:59:00.000+00:00"
    },
    "request": {
      "method": "PUT",
      "url": "Procedure/b85d015c-f126-43bb-8faf-11270caca7d4"
    }
  }, {
    "fullUrl": "https://madie.cms.gov/Condition/ac888fb6-7e55-4585-bb28-4ab76c20576e",
    "resource": {
      "resourceType": "Condition",
      "id": "ac888fb6-7e55-4585-bb28-4ab76c20576e",
      "meta": {
        "profile": [ "http://hl7.org/fhir/us/qicore/StructureDefinition/qicore-condition-problems-health-concerns" ]
      },
      "clinicalStatus": {
        "coding": [ {
          "system": "http://terminology.hl7.org/CodeSystem/condition-clinical",
          "code": "inactive",
          "display": "inactive",
          "userSelected": true
        } ]
      },
      "category": [ {
        "coding": [ {
          "system": "http://terminology.hl7.org/CodeSystem/condition-category",
          "code": "problem-list-item",
          "display": "Problem List Item"
        }, {
          "system": "http://snomed.info/sct",
          "code": "439401001",
          "display": "Diagnosis"
        } ]
      } ],
      "code": {
        "coding": [ {
          "system": "http://snomed.info/sct",
          "version": "2022-03",
          "code": "162863004",
          "display": "Body mass index 25-29 - overweight (finding)",
          "userSelected": true
        } ]
      },
      "subject": {
        "reference": "Patient/a0aacdbc-4954-48af-aa88-361ea7e32736"
      },
      "abatementPeriod": {
        "start": "2024-07-25T08:00:00.000+00:00",
        "end": "2026-12-30T08:15:00.000+00:00"
      }
    },
    "request": {
      "method": "PUT",
      "url": "Condition/ac888fb6-7e55-4585-bb28-4ab76c20576e"
    }
  }, {
    "fullUrl": "https://madie.cms.gov/Coverage/220f220c-4cbc-4664-96d3-9c82f166049a",
    "resource": {
      "resourceType": "Coverage",
      "id": "220f220c-4cbc-4664-96d3-9c82f166049a",
      "meta": {
        "profile": [ "http://hl7.org/fhir/us/qicore/StructureDefinition/qicore-coverage" ]
      },
      "status": "active",
      "beneficiary": {
        "reference": "Patient/a0aacdbc-4954-48af-aa88-361ea7e32736"
      },
      "payor": [ {
        "reference": "Organization/789c9266-580b-4a30-9cb2-1552b1fdfa3e"
      } ]
    },
    "request": {
      "method": "PUT",
      "url": "Coverage/220f220c-4cbc-4664-96d3-9c82f166049a"
    }
  }, {
    "fullUrl": "https://madie.cms.gov/Organization/789c9266-580b-4a30-9cb2-1552b1fdfa3e",
    "resource": {
      "resourceType": "Organization",
      "id": "789c9266-580b-4a30-9cb2-1552b1fdfa3e",
      "meta": {
        "profile": [ "http://hl7.org/fhir/us/qicore/StructureDefinition/qicore-organization" ]
      },
      "identifier": [ {
        "use": "temp",
        "system": "urn:oid:2.16.840.1.113883.4.4",
        "value": "21-3259825"
      } ],
      "active": true,
      "type": [ {
        "coding": [ {
          "system": "http://terminology.hl7.org/CodeSystem/organization-type",
          "code": "pay",
          "display": "Payer"
        } ]
      } ],
      "name": "Blue Cross Blue Shield of Texas",
      "telecom": [ {
        "system": "phone",
        "value": "(+1) 972-766-6900"
      } ],
      "address": [ {
        "use": "billing",
        "type": "postal",
        "line": [ "P.O. Box 660044" ],
        "city": "Dallas",
        "state": "TX",
        "postalCode": "75266-0044",
        "country": "USA"
      } ]
    },
    "request": {
      "method": "PUT",
      "url": "Organization/789c9266-580b-4a30-9cb2-1552b1fdfa3e"
    }
  }, {
    "fullUrl": "https://madie.cms.gov/MeasureReport/61c478d2-8bd1-4092-a0d3-92651e40da4f",
    "resource": {
      "resourceType": "MeasureReport",
      "id": "61c478d2-8bd1-4092-a0d3-92651e40da4f",
      "meta": {
        "profile": [ "http://hl7.org/fhir/us/cqfmeasures/StructureDefinition/test-case-cqfm" ]
      },
      "contained": [ {
        "resourceType": "Parameters",
        "id": "f9cef0c0-b7ef-4a7b-93ce-d00541feb449-parameters",
        "parameter": [ {
          "name": "subject",
          "valueString": "a0aacdbc-4954-48af-aa88-361ea7e32736"
        } ]
      } ],
      "extension": [ {
        "url": "http://hl7.org/fhir/StructureDefinition/cqf-inputParameters",
        "valueReference": {
          "reference": "#f9cef0c0-b7ef-4a7b-93ce-d00541feb449-parameters"
        }
      }, {
        "url": "http://hl7.org/fhir/us/cqfmeasures/StructureDefinition/cqfm-testCaseDescription",
        "valueMarkdown": "Enc last day of MP @23:30-23:59, BMI 30 kg/m2 during enc, Obese dx 7/25/23, inactive 12/30, intervention after dx inactive, expected to fail the numer "
      } ],
      "modifierExtension": [ {
        "url": "http://hl7.org/fhir/us/cqfmeasures/StructureDefinition/cqfm-isTestCase",
        "valueBoolean": true
      } ],
      "status": "complete",
      "type": "individual",
      "measure": "https://madie.cms.gov/Measure/CMS69FHIRPCSBMIScreenAndFollowUp",
      "period": {
        "start": "2026-01-01",
        "end": "2026-12-31"
      },
      "group": [ {
        "id": "Group_1",
        "population": [ {
          "id": "InitialPopulation_1",
          "code": {
            "coding": [ {
              "system": "http://terminology.hl7.org/CodeSystem/measure-population",
              "code": "initial-population",
              "display": "Initial Population"
            } ]
          },
          "count": 1
        }, {
          "id": "Denominator_1",
          "code": {
            "coding": [ {
              "system": "http://terminology.hl7.org/CodeSystem/measure-population",
              "code": "denominator",
              "display": "Denominator"
            } ]
          },
          "count": 1
        }, {
          "id": "DenominatorExclusion_1",
          "code": {
            "coding": [ {
              "system": "http://terminology.hl7.org/CodeSystem/measure-population",
              "code": "denominator-exclusion",
              "display": "Denominator Exclusion"
            } ]
          },
          "count": 0
        }, {
          "id": "Numerator_1",
          "code": {
            "coding": [ {
              "system": "http://terminology.hl7.org/CodeSystem/measure-population",
              "code": "numerator",
              "display": "Numerator"
            } ]
          },
          "count": 0
        }, {
          "id": "DenominatorException_1",
          "code": {
            "coding": [ {
              "system": "http://terminology.hl7.org/CodeSystem/measure-population",
              "code": "denominator-exception",
              "display": "Denominator Exception"
            } ]
          },
          "count": 0
        } ],
        "measureScore": {
          "value": 1.0
        }
      } ],
      "evaluatedResource": [ {
        "reference": "Patient/a0aacdbc-4954-48af-aa88-361ea7e32736"
      }, {
        "reference": "Encounter/569cd502-61fd-4400-a2ff-eb0a7d0a3d78"
      }, {
        "reference": "Observation/78618711-76e5-417c-93b6-d5c75ffcdaaa"
      }, {
        "reference": "Procedure/b85d015c-f126-43bb-8faf-11270caca7d4"
      }, {
        "reference": "Condition/ac888fb6-7e55-4585-bb28-4ab76c20576e"
      }, {
        "reference": "Coverage/220f220c-4cbc-4664-96d3-9c82f166049a"
      }, {
        "reference": "Organization/789c9266-580b-4a30-9cb2-1552b1fdfa3e"
      } ]
    },
    "request": {
      "method": "PUT",
      "url": "MeasureReport/61c478d2-8bd1-4092-a0d3-92651e40da4f"
    }
  } ]
}