{
  "resourceType": "Bundle",
  "id": "DENEXPass-FrailtyDxOverlapsMP",
  "type": "transaction",
  "entry": [ {
    "fullUrl": "https://madie.cms.gov/Patient/01a1241d-fd97-4c72-b288-fd31c4c7ae80",
    "resource": {
      "resourceType": "Patient",
      "id": "01a1241d-fd97-4c72-b288-fd31c4c7ae80",
      "meta": {
        "profile": [ "http://hl7.org/fhir/us/qicore/StructureDefinition/qicore-patient" ]
      },
      "extension": [ {
        "url": "http://hl7.org/fhir/us/core/StructureDefinition/us-core-race",
        "extension": [ {
          "url": "ombCategory",
          "valueCoding": {
            "system": "urn:oid:2.16.840.1.113883.6.238",
            "code": "2028-9",
            "display": "Asian",
            "userSelected": true
          }
        }, {
          "url": "text",
          "valueString": "Asian"
        } ]
      }, {
        "url": "http://hl7.org/fhir/us/core/StructureDefinition/us-core-ethnicity",
        "extension": [ {
          "url": "ombCategory",
          "valueCoding": {
            "system": "urn:oid:2.16.840.1.113883.6.238",
            "code": "2135-2",
            "display": "Hispanic or Latino",
            "userSelected": true
          }
        }, {
          "url": "text",
          "valueString": "Hispanic or Latino"
        } ]
      } ],
      "identifier": [ {
        "type": {
          "coding": [ {
            "system": "http://terminology.hl7.org/CodeSystem/v2-0203",
            "code": "MR"
          } ]
        },
        "system": "http://hospital.smarthealthit.org",
        "value": "999999995"
      } ],
      "name": [ {
        "family": "Bertha",
        "given": [ "Betty" ]
      } ],
      "gender": "female",
      "birthDate": "1954-12-31"
    },
    "request": {
      "method": "PUT",
      "url": "Patient/01a1241d-fd97-4c72-b288-fd31c4c7ae80"
    }
  }, {
    "fullUrl": "https://madie.cms.gov/Encounter/666371ff-d337-416f-8972-1c2ae414dad4",
    "resource": {
      "resourceType": "Encounter",
      "id": "666371ff-d337-416f-8972-1c2ae414dad4",
      "meta": {
        "profile": [ "http://hl7.org/fhir/us/qicore/StructureDefinition/qicore-encounter" ]
      },
      "status": "finished",
      "class": {
        "system": "http://terminology.hl7.org/CodeSystem/v3-ActCode",
        "code": "AMB",
        "display": "ambulatory"
      },
      "type": [ {
        "coding": [ {
          "system": "http://snomed.info/sct",
          "code": "456201000124103",
          "display": "Medicare annual wellness visit (procedure)"
        } ]
      } ],
      "subject": {
        "reference": "Patient/01a1241d-fd97-4c72-b288-fd31c4c7ae80"
      },
      "period": {
        "start": "2026-01-01T00:00:00.000+00:00",
        "end": "2026-01-01T00:00:00.000+00:00"
      }
    },
    "request": {
      "method": "PUT",
      "url": "Encounter/666371ff-d337-416f-8972-1c2ae414dad4"
    }
  }, {
    "fullUrl": "https://madie.cms.gov/Condition/a5a8cfb1-b73d-4c63-83ae-61e06738cd15",
    "resource": {
      "resourceType": "Condition",
      "id": "a5a8cfb1-b73d-4c63-83ae-61e06738cd15",
      "meta": {
        "profile": [ "http://hl7.org/fhir/us/qicore/StructureDefinition/qicore-condition-encounter-diagnosis" ]
      },
      "clinicalStatus": {
        "coding": [ {
          "system": "http://terminology.hl7.org/CodeSystem/condition-clinical",
          "code": "active"
        } ]
      },
      "category": [ {
        "coding": [ {
          "system": "http://terminology.hl7.org/CodeSystem/condition-category",
          "code": "problem-list-item",
          "display": "Problem List Item"
        } ]
      } ],
      "code": {
        "coding": [ {
          "system": "http://snomed.info/sct",
          "code": "102781000119107",
          "display": "Sensory neuropathy due to type 1 diabetes mellitus (disorder)"
        } ]
      },
      "subject": {
        "reference": "Patient/01a1241d-fd97-4c72-b288-fd31c4c7ae80"
      },
      "onsetDateTime": "2026-01-01T00:00:00.000+00:00"
    },
    "request": {
      "method": "PUT",
      "url": "Condition/a5a8cfb1-b73d-4c63-83ae-61e06738cd15"
    }
  }, {
    "fullUrl": "https://madie.cms.gov/MedicationRequest/edfa4468-5eef-4935-8031-830058401e58",
    "resource": {
      "resourceType": "MedicationRequest",
      "id": "edfa4468-5eef-4935-8031-830058401e58",
      "meta": {
        "profile": [ "http://hl7.org/fhir/us/qicore/StructureDefinition/qicore-medicationrequest" ]
      },
      "status": "active",
      "intent": "order",
      "doNotPerform": false,
      "medicationCodeableConcept": {
        "coding": [ {
          "system": "http://www.nlm.nih.gov/research/umls/rxnorm",
          "code": "312836",
          "display": "rivastigmine 6 MG Oral Capsule"
        } ]
      },
      "subject": {
        "reference": "Patient/01a1241d-fd97-4c72-b288-fd31c4c7ae80"
      },
      "authoredOn": "2026-12-30T00:00:00.000+00:00",
      "requester": {
        "reference": "Practitioner/example"
      },
      "dispenseRequest": {
        "expectedSupplyDuration": {
          "value": 90,
          "system": "http://unitsofmeasure.org",
          "code": "days"
        }
      }
    },
    "request": {
      "method": "PUT",
      "url": "MedicationRequest/edfa4468-5eef-4935-8031-830058401e58"
    }
  }, {
    "fullUrl": "https://madie.cms.gov/Condition/c25ddf16-0cfd-4265-a0f6-eee387bc86b7",
    "resource": {
      "resourceType": "Condition",
      "id": "c25ddf16-0cfd-4265-a0f6-eee387bc86b7",
      "meta": {
        "profile": [ "http://hl7.org/fhir/us/qicore/StructureDefinition/qicore-condition-encounter-diagnosis" ]
      },
      "clinicalStatus": {
        "coding": [ {
          "system": "http://terminology.hl7.org/CodeSystem/condition-clinical",
          "code": "active"
        } ]
      },
      "category": [ {
        "coding": [ {
          "system": "http://terminology.hl7.org/CodeSystem/condition-category",
          "code": "problem-list-item",
          "display": "Problem List Item"
        } ]
      } ],
      "code": {
        "coding": [ {
          "system": "http://snomed.info/sct",
          "code": "217083007",
          "display": "Fall on or from stairs or steps (event)"
        } ]
      },
      "subject": {
        "reference": "Patient/01a1241d-fd97-4c72-b288-fd31c4c7ae80"
      },
      "onsetDateTime": "2026-06-30T23:59:59.000+00:00"
    },
    "request": {
      "method": "PUT",
      "url": "Condition/c25ddf16-0cfd-4265-a0f6-eee387bc86b7"
    }
  }, {
    "fullUrl": "https://madie.cms.gov/MeasureReport/30b369f8-b1d8-4ab3-9fba-a0abe5a8c6e1",
    "resource": {
      "resourceType": "MeasureReport",
      "id": "30b369f8-b1d8-4ab3-9fba-a0abe5a8c6e1",
      "meta": {
        "profile": [ "http://hl7.org/fhir/us/cqfmeasures/StructureDefinition/test-case-cqfm" ]
      },
      "contained": [ {
        "resourceType": "Parameters",
        "id": "0bc9f7f8-5177-4835-b66d-72f48d6e8dba-parameters",
        "parameter": [ {
          "name": "subject",
          "valueString": "01a1241d-fd97-4c72-b288-fd31c4c7ae80"
        } ]
      } ],
      "extension": [ {
        "url": "http://hl7.org/fhir/StructureDefinition/cqf-inputParameters",
        "valueReference": {
          "reference": "#0bc9f7f8-5177-4835-b66d-72f48d6e8dba-parameters"
        }
      }, {
        "url": "http://hl7.org/fhir/us/cqfmeasures/StructureDefinition/cqfm-testCaseDescription",
        "valueMarkdown": "Frailty diagnosis overlaps MP"
      } ],
      "modifierExtension": [ {
        "url": "http://hl7.org/fhir/us/cqfmeasures/StructureDefinition/cqfm-isTestCase",
        "valueBoolean": true
      } ],
      "status": "complete",
      "type": "individual",
      "measure": "https://madie.cms.gov/Measure/CMS131FHIRDiabetesEyeExam",
      "period": {
        "start": "2026-01-01",
        "end": "2026-12-31"
      },
      "group": [ {
        "id": "Group_1",
        "population": [ {
          "id": "InitialPopulation_1",
          "code": {
            "coding": [ {
              "system": "http://terminology.hl7.org/CodeSystem/measure-population",
              "code": "initial-population",
              "display": "Initial Population"
            } ]
          },
          "count": 1
        }, {
          "id": "Denominator_1",
          "code": {
            "coding": [ {
              "system": "http://terminology.hl7.org/CodeSystem/measure-population",
              "code": "denominator",
              "display": "Denominator"
            } ]
          },
          "count": 1
        }, {
          "id": "DenominatorExclusion_1",
          "code": {
            "coding": [ {
              "system": "http://terminology.hl7.org/CodeSystem/measure-population",
              "code": "denominator-exclusion",
              "display": "Denominator Exclusion"
            } ]
          },
          "count": 1
        }, {
          "id": "Numerator_1",
          "code": {
            "coding": [ {
              "system": "http://terminology.hl7.org/CodeSystem/measure-population",
              "code": "numerator",
              "display": "Numerator"
            } ]
          },
          "count": 0
        } ],
        "measureScore": {
          "value": 1.0
        }
      } ],
      "evaluatedResource": [ {
        "reference": "Patient/01a1241d-fd97-4c72-b288-fd31c4c7ae80"
      }, {
        "reference": "Encounter/666371ff-d337-416f-8972-1c2ae414dad4"
      }, {
        "reference": "Condition/a5a8cfb1-b73d-4c63-83ae-61e06738cd15"
      }, {
        "reference": "MedicationRequest/edfa4468-5eef-4935-8031-830058401e58"
      }, {
        "reference": "Condition/c25ddf16-0cfd-4265-a0f6-eee387bc86b7"
      } ]
    },
    "request": {
      "method": "PUT",
      "url": "MeasureReport/30b369f8-b1d8-4ab3-9fba-a0abe5a8c6e1"
    }
  } ]
}