{
  "resourceType": "Bundle",
  "id": "NUMPass-RetinalExamDec31OfMPRetinoDxDec31B4MP",
  "type": "transaction",
  "entry": [ {
    "fullUrl": "https://madie.cms.gov/Patient/52d1f4f3-14a0-4eed-a0c2-334b8146b117",
    "resource": {
      "resourceType": "Patient",
      "id": "52d1f4f3-14a0-4eed-a0c2-334b8146b117",
      "meta": {
        "profile": [ "http://hl7.org/fhir/us/qicore/StructureDefinition/qicore-patient" ]
      },
      "extension": [ {
        "url": "http://hl7.org/fhir/us/core/StructureDefinition/us-core-race",
        "extension": [ {
          "url": "ombCategory",
          "valueCoding": {
            "system": "urn:oid:2.16.840.1.113883.6.238",
            "code": "2028-9",
            "display": "Asian",
            "userSelected": true
          }
        }, {
          "url": "text",
          "valueString": "Asian"
        } ]
      }, {
        "url": "http://hl7.org/fhir/us/core/StructureDefinition/us-core-ethnicity",
        "extension": [ {
          "url": "ombCategory",
          "valueCoding": {
            "system": "urn:oid:2.16.840.1.113883.6.238",
            "code": "2135-2",
            "display": "Hispanic or Latino",
            "userSelected": true
          }
        }, {
          "url": "text",
          "valueString": "Hispanic or Latino"
        } ]
      } ],
      "identifier": [ {
        "type": {
          "coding": [ {
            "system": "http://terminology.hl7.org/CodeSystem/v2-0203",
            "code": "MR"
          } ]
        },
        "system": "http://hospital.smarthealthit.org",
        "value": "999999995"
      } ],
      "name": [ {
        "family": "Bertha",
        "given": [ "Betty" ]
      } ],
      "gender": "female",
      "birthDate": "2008-12-31"
    },
    "request": {
      "method": "PUT",
      "url": "Patient/52d1f4f3-14a0-4eed-a0c2-334b8146b117"
    }
  }, {
    "fullUrl": "https://madie.cms.gov/Encounter/338adfb4-8b0e-4a73-8889-dd57617042da",
    "resource": {
      "resourceType": "Encounter",
      "id": "338adfb4-8b0e-4a73-8889-dd57617042da",
      "meta": {
        "profile": [ "http://hl7.org/fhir/us/qicore/StructureDefinition/qicore-encounter" ]
      },
      "status": "finished",
      "class": {
        "system": "http://terminology.hl7.org/CodeSystem/v3-ActCode",
        "code": "AMB",
        "display": "ambulatory"
      },
      "type": [ {
        "coding": [ {
          "system": "http://snomed.info/sct",
          "code": "185463005",
          "display": "Visit out of hours (procedure)"
        } ]
      } ],
      "subject": {
        "reference": "Patient/52d1f4f3-14a0-4eed-a0c2-334b8146b117"
      },
      "period": {
        "start": "2026-01-01T00:00:00.000+00:00",
        "end": "2026-01-01T00:00:00.000+00:00"
      }
    },
    "request": {
      "method": "PUT",
      "url": "Encounter/338adfb4-8b0e-4a73-8889-dd57617042da"
    }
  }, {
    "fullUrl": "https://madie.cms.gov/Condition/ab4b7974-0a83-40a8-961b-151bf460a0eb",
    "resource": {
      "resourceType": "Condition",
      "id": "ab4b7974-0a83-40a8-961b-151bf460a0eb",
      "meta": {
        "profile": [ "http://hl7.org/fhir/us/qicore/StructureDefinition/qicore-condition-encounter-diagnosis" ]
      },
      "clinicalStatus": {
        "coding": [ {
          "system": "http://terminology.hl7.org/CodeSystem/condition-clinical",
          "code": "active"
        } ]
      },
      "category": [ {
        "coding": [ {
          "system": "http://terminology.hl7.org/CodeSystem/condition-category",
          "code": "problem-list-item",
          "display": "Problem List Item"
        } ]
      } ],
      "code": {
        "coding": [ {
          "system": "http://snomed.info/sct",
          "code": "102781000119107",
          "display": "Sensory neuropathy due to type 1 diabetes mellitus (disorder)"
        } ]
      },
      "subject": {
        "reference": "Patient/52d1f4f3-14a0-4eed-a0c2-334b8146b117"
      },
      "onsetDateTime": "2026-01-01T00:00:00.000+00:00"
    },
    "request": {
      "method": "PUT",
      "url": "Condition/ab4b7974-0a83-40a8-961b-151bf460a0eb"
    }
  }, {
    "fullUrl": "https://madie.cms.gov/Condition/ab4b7974-0a83-40a8-961b-151bf460a0eb.1",
    "resource": {
      "resourceType": "Condition",
      "id": "ab4b7974-0a83-40a8-961b-151bf460a0eb.1",
      "meta": {
        "profile": [ "http://hl7.org/fhir/us/qicore/StructureDefinition/qicore-condition-encounter-diagnosis" ]
      },
      "clinicalStatus": {
        "coding": [ {
          "system": "http://terminology.hl7.org/CodeSystem/condition-clinical",
          "code": "active"
        } ]
      },
      "category": [ {
        "coding": [ {
          "system": "http://terminology.hl7.org/CodeSystem/condition-category",
          "code": "problem-list-item",
          "display": "Problem List Item"
        } ]
      } ],
      "code": {
        "coding": [ {
          "system": "http://snomed.info/sct",
          "code": "193349004",
          "display": "Preproliferative retinopathy due to diabetes mellitus (disorder)"
        } ]
      },
      "subject": {
        "reference": "Patient/52d1f4f3-14a0-4eed-a0c2-334b8146b117"
      },
      "onsetDateTime": "2025-12-31T23:59:59.000+00:00"
    },
    "request": {
      "method": "PUT",
      "url": "Condition/ab4b7974-0a83-40a8-961b-151bf460a0eb.1"
    }
  }, {
    "fullUrl": "https://madie.cms.gov/Observation/97a08095-a352-4c2b-a872-d8140bb44fd7",
    "resource": {
      "resourceType": "Observation",
      "id": "97a08095-a352-4c2b-a872-d8140bb44fd7",
      "meta": {
        "profile": [ "http://hl7.org/fhir/us/qicore/StructureDefinition-qicore-observation-clinical-result" ]
      },
      "status": "final",
      "category": [ {
        "coding": [ {
          "system": "http://terminology.hl7.org/CodeSystem/observation-category",
          "code": "exam"
        } ]
      } ],
      "code": {
        "coding": [ {
          "system": "http://snomed.info/sct",
          "code": "20067007",
          "display": "Ocular fundus photography (procedure)"
        } ]
      },
      "subject": {
        "reference": "Patient/52d1f4f3-14a0-4eed-a0c2-334b8146b117"
      },
      "effectivePeriod": {
        "start": "2026-12-30T23:59:59.000+00:00",
        "end": "2026-12-31T23:59:59.000+00:00"
      }
    },
    "request": {
      "method": "PUT",
      "url": "Observation/97a08095-a352-4c2b-a872-d8140bb44fd7"
    }
  }, {
    "fullUrl": "https://madie.cms.gov/MeasureReport/621326e1-5910-4821-8901-1d9b4ddf096d",
    "resource": {
      "resourceType": "MeasureReport",
      "id": "621326e1-5910-4821-8901-1d9b4ddf096d",
      "meta": {
        "profile": [ "http://hl7.org/fhir/us/cqfmeasures/StructureDefinition/test-case-cqfm" ]
      },
      "contained": [ {
        "resourceType": "Parameters",
        "id": "c9a22bc8-6860-4c41-ac15-9ea2bbfbeff3-parameters",
        "parameter": [ {
          "name": "subject",
          "valueString": "52d1f4f3-14a0-4eed-a0c2-334b8146b117"
        } ]
      } ],
      "extension": [ {
        "url": "http://hl7.org/fhir/StructureDefinition/cqf-inputParameters",
        "valueReference": {
          "reference": "#c9a22bc8-6860-4c41-ac15-9ea2bbfbeff3-parameters"
        }
      }, {
        "url": "http://hl7.org/fhir/us/cqfmeasures/StructureDefinition/cqfm-testCaseDescription",
        "valueMarkdown": "Patient 18yo w/ an Office Visit Encounter, Diabetes Condition ending 1/1 during the MP, and Retinopathy Condition 1/1 of the year after the MP, with an Eye Exam Observation 1/1 of the year before the MP."
      } ],
      "modifierExtension": [ {
        "url": "http://hl7.org/fhir/us/cqfmeasures/StructureDefinition/cqfm-isTestCase",
        "valueBoolean": true
      } ],
      "status": "complete",
      "type": "individual",
      "measure": "https://madie.cms.gov/Measure/CMS131FHIRDiabetesEyeExam",
      "period": {
        "start": "2026-01-01",
        "end": "2026-12-31"
      },
      "group": [ {
        "id": "Group_1",
        "population": [ {
          "id": "InitialPopulation_1",
          "code": {
            "coding": [ {
              "system": "http://terminology.hl7.org/CodeSystem/measure-population",
              "code": "initial-population",
              "display": "Initial Population"
            } ]
          },
          "count": 1
        }, {
          "id": "Denominator_1",
          "code": {
            "coding": [ {
              "system": "http://terminology.hl7.org/CodeSystem/measure-population",
              "code": "denominator",
              "display": "Denominator"
            } ]
          },
          "count": 1
        }, {
          "id": "DenominatorExclusion_1",
          "code": {
            "coding": [ {
              "system": "http://terminology.hl7.org/CodeSystem/measure-population",
              "code": "denominator-exclusion",
              "display": "Denominator Exclusion"
            } ]
          },
          "count": 0
        }, {
          "id": "Numerator_1",
          "code": {
            "coding": [ {
              "system": "http://terminology.hl7.org/CodeSystem/measure-population",
              "code": "numerator",
              "display": "Numerator"
            } ]
          },
          "count": 0
        } ],
        "measureScore": {
          "value": 1.0
        }
      } ],
      "evaluatedResource": [ {
        "reference": "Patient/52d1f4f3-14a0-4eed-a0c2-334b8146b117"
      }, {
        "reference": "Encounter/338adfb4-8b0e-4a73-8889-dd57617042da"
      }, {
        "reference": "Condition/ab4b7974-0a83-40a8-961b-151bf460a0eb"
      }, {
        "reference": "Condition/ab4b7974-0a83-40a8-961b-151bf460a0eb.1"
      }, {
        "reference": "Observation/97a08095-a352-4c2b-a872-d8140bb44fd7"
      } ]
    },
    "request": {
      "method": "PUT",
      "url": "MeasureReport/621326e1-5910-4821-8901-1d9b4ddf096d"
    }
  } ]
}