{
  "resourceType": "Bundle",
  "id": "NUMFail-Age29HPVTestFourYearsPriorMP",
  "type": "transaction",
  "entry": [ {
    "fullUrl": "https://madie.cms.gov/Patient/c5ea33df-060b-484a-b6c4-17c600559077",
    "resource": {
      "resourceType": "Patient",
      "id": "c5ea33df-060b-484a-b6c4-17c600559077",
      "meta": {
        "profile": [ "http://hl7.org/fhir/us/qicore/StructureDefinition/qicore-patient" ]
      },
      "extension": [ {
        "url": "http://hl7.org/fhir/us/core/StructureDefinition/us-core-race",
        "extension": [ {
          "url": "ombCategory",
          "valueCoding": {
            "system": "urn:oid:2.16.840.1.113883.6.238",
            "code": "2028-9",
            "display": "Asian"
          }
        }, {
          "url": "text",
          "valueString": "Asian"
        } ]
      }, {
        "url": "http://hl7.org/fhir/us/core/StructureDefinition/us-core-ethnicity",
        "extension": [ {
          "url": "ombCategory",
          "valueCoding": {
            "system": "urn:oid:2.16.840.1.113883.6.238",
            "code": "2135-2",
            "display": "Hispanic or Latino"
          }
        }, {
          "url": "text",
          "valueString": "Hispanic or Latino"
        } ]
      } ],
      "identifier": [ {
        "system": "http://hospital.smarthealthit.org",
        "value": "999999995"
      } ],
      "name": [ {
        "family": "Bertha",
        "given": [ "Betty" ]
      } ],
      "gender": "female",
      "birthDate": "1997-12-31"
    },
    "request": {
      "method": "PUT",
      "url": "Patient/c5ea33df-060b-484a-b6c4-17c600559077"
    }
  }, {
    "fullUrl": "https://madie.cms.gov/Encounter/b518ae85-a3db-40f0-b855-8c959763d9ea",
    "resource": {
      "resourceType": "Encounter",
      "id": "b518ae85-a3db-40f0-b855-8c959763d9ea",
      "meta": {
        "profile": [ "http://hl7.org/fhir/us/qicore/StructureDefinition/qicore-encounter" ]
      },
      "status": "finished",
      "class": {
        "system": "http://terminology.hl7.org/CodeSystem/v3-ActCode",
        "code": "AMB",
        "display": "ambulatory"
      },
      "type": [ {
        "coding": [ {
          "system": "http://snomed.info/sct",
          "code": "185317003",
          "display": "Telephone encounter (procedure)"
        } ]
      } ],
      "subject": {
        "reference": "Patient/Patient-15"
      },
      "period": {
        "start": "2026-01-01T01:00:00.000+00:00",
        "end": "2026-01-01T01:15:00.000+00:00"
      }
    },
    "request": {
      "method": "PUT",
      "url": "Encounter/b518ae85-a3db-40f0-b855-8c959763d9ea"
    }
  }, {
    "fullUrl": "https://madie.cms.gov/Observation/f0292bf5-2a8f-43a2-97b3-c6b9c87620ef",
    "resource": {
      "resourceType": "Observation",
      "id": "f0292bf5-2a8f-43a2-97b3-c6b9c87620ef",
      "meta": {
        "profile": [ "http://hl7.org/fhir/us/qicore/StructureDefinition/qicore-observation" ]
      },
      "status": "final",
      "category": [ {
        "coding": [ {
          "system": "http://terminology.hl7.org/CodeSystem/observation-category",
          "code": "laboratory",
          "display": "laboratory"
        } ],
        "text": "laboratory"
      } ],
      "code": {
        "coding": [ {
          "system": "http://loinc.org",
          "code": "21440-3",
          "display": "Human papilloma virus 16+18+31+33+35+45+51+52+56 DNA [Presence] in Cervix by Probe"
        } ]
      },
      "subject": {
        "reference": "Patient/Patient-15"
      },
      "effectivePeriod": {
        "start": "2022-01-01T23:00:00.000+00:00",
        "end": "2022-01-01T23:59:00.000+00:00"
      },
      "valueInteger": 1
    },
    "request": {
      "method": "PUT",
      "url": "Observation/f0292bf5-2a8f-43a2-97b3-c6b9c87620ef"
    }
  }, {
    "fullUrl": "https://madie.cms.gov/MeasureReport/0139a9db-9230-44ad-890a-7be2830ad2a0",
    "resource": {
      "resourceType": "MeasureReport",
      "id": "0139a9db-9230-44ad-890a-7be2830ad2a0",
      "meta": {
        "profile": [ "http://hl7.org/fhir/us/cqfmeasures/StructureDefinition/test-case-cqfm" ]
      },
      "contained": [ {
        "resourceType": "Parameters",
        "id": "254a0491-d03a-45c2-9cd5-1201d7dfb35b-parameters",
        "parameter": [ {
          "name": "subject",
          "valueString": "c5ea33df-060b-484a-b6c4-17c600559077"
        } ]
      } ],
      "extension": [ {
        "url": "http://hl7.org/fhir/StructureDefinition/cqf-inputParameters",
        "valueReference": {
          "reference": "#254a0491-d03a-45c2-9cd5-1201d7dfb35b-parameters"
        }
      }, {
        "url": "http://hl7.org/fhir/us/cqfmeasures/StructureDefinition/cqfm-testCaseDescription",
        "valueMarkdown": "Female 29 years old with HPV Test four years prior to MP"
      } ],
      "modifierExtension": [ {
        "url": "http://hl7.org/fhir/us/cqfmeasures/StructureDefinition/cqfm-isTestCase",
        "valueBoolean": true
      } ],
      "status": "complete",
      "type": "individual",
      "measure": "https://madie.cms.gov/Measure/CMS124FHIRCervicalCancerScreening",
      "period": {
        "start": "2026-01-01",
        "end": "2026-12-31"
      },
      "group": [ {
        "id": "Group_1",
        "population": [ {
          "id": "InitialPopulation_1",
          "code": {
            "coding": [ {
              "system": "http://terminology.hl7.org/CodeSystem/measure-population",
              "code": "initial-population",
              "display": "Initial Population"
            } ]
          },
          "count": 1
        }, {
          "id": "Denominator_1",
          "code": {
            "coding": [ {
              "system": "http://terminology.hl7.org/CodeSystem/measure-population",
              "code": "denominator",
              "display": "Denominator"
            } ]
          },
          "count": 1
        }, {
          "id": "DenominatorExclusion_1",
          "code": {
            "coding": [ {
              "system": "http://terminology.hl7.org/CodeSystem/measure-population",
              "code": "denominator-exclusion",
              "display": "Denominator Exclusion"
            } ]
          },
          "count": 0
        }, {
          "id": "Numerator_1",
          "code": {
            "coding": [ {
              "system": "http://terminology.hl7.org/CodeSystem/measure-population",
              "code": "numerator",
              "display": "Numerator"
            } ]
          },
          "count": 0
        } ],
        "measureScore": {
          "value": 1.0
        }
      } ],
      "evaluatedResource": [ {
        "reference": "Patient/c5ea33df-060b-484a-b6c4-17c600559077"
      }, {
        "reference": "Encounter/b518ae85-a3db-40f0-b855-8c959763d9ea"
      }, {
        "reference": "Observation/f0292bf5-2a8f-43a2-97b3-c6b9c87620ef"
      } ]
    },
    "request": {
      "method": "PUT",
      "url": "MeasureReport/0139a9db-9230-44ad-890a-7be2830ad2a0"
    }
  } ]
}