{
  "resourceType": "Bundle",
  "id": "62aa60bdc4be4c506d4a534b",
  "type": "transaction",
  "entry": [ {
    "fullUrl": "https://madie.cms.gov/Patient/42e6b4d6-defc-4ec5-894f-e3333e3039a3",
    "resource": {
      "resourceType": "Patient",
      "id": "42e6b4d6-defc-4ec5-894f-e3333e3039a3",
      "meta": {
        "profile": [ "http://hl7.org/fhir/us/qicore/StructureDefinition/qicore-patient" ]
      },
      "extension": [ {
        "url": "http://hl7.org/fhir/us/core/StructureDefinition/us-core-race",
        "extension": [ {
          "url": "ombCategory",
          "valueCoding": {
            "system": "urn:oid:2.16.840.1.113883.6.238",
            "code": "1002-5",
            "display": "American Indian or Alaska Native",
            "userSelected": true
          }
        }, {
          "url": "text",
          "valueString": "American Indian or Alaska Native"
        } ]
      }, {
        "url": "http://hl7.org/fhir/us/core/StructureDefinition/us-core-ethnicity",
        "extension": [ {
          "url": "ombCategory",
          "valueCoding": {
            "system": "urn:oid:2.16.840.1.113883.6.238",
            "code": "2186-5",
            "display": "Not Hispanic or Latino",
            "userSelected": true
          }
        }, {
          "url": "text",
          "valueString": "Not Hispanic or Latino"
        } ]
      } ],
      "identifier": [ {
        "type": {
          "coding": [ {
            "system": "http://terminology.hl7.org/CodeSystem/v2-0203",
            "code": "MR"
          } ]
        },
        "system": "https://bonnie-fhir.healthit.gov/",
        "value": "62aa60bdc4be4c506d4a534b"
      } ],
      "name": [ {
        "family": "NUMERPass",
        "given": [ "NormalBMIAt24pt9" ]
      } ],
      "gender": "other",
      "birthDate": "1957-11-07"
    },
    "request": {
      "method": "PUT",
      "url": "Patient/42e6b4d6-defc-4ec5-894f-e3333e3039a3"
    }
  }, {
    "fullUrl": "https://madie.cms.gov/Encounter/0ffe40f5-f132-4f92-8b24-da64d7e7c1d1",
    "resource": {
      "resourceType": "Encounter",
      "id": "0ffe40f5-f132-4f92-8b24-da64d7e7c1d1",
      "meta": {
        "profile": [ "http://hl7.org/fhir/us/qicore/StructureDefinition/qicore-encounter" ]
      },
      "status": "finished",
      "class": {
        "system": "http://terminology.hl7.org/CodeSystem/v3-ActCode",
        "code": "AMB",
        "display": "ambulatory"
      },
      "type": [ {
        "coding": [ {
          "system": "http://snomed.info/sct",
          "version": "2022-03",
          "code": "10197000",
          "display": "Psychiatric interview and evaluation (procedure)",
          "userSelected": true
        } ]
      } ],
      "subject": {
        "reference": "Patient/42e6b4d6-defc-4ec5-894f-e3333e3039a3"
      },
      "period": {
        "start": "2026-01-01T00:00:00.000+00:00",
        "end": "2026-01-01T00:30:00.000+00:00"
      }
    },
    "request": {
      "method": "PUT",
      "url": "Encounter/0ffe40f5-f132-4f92-8b24-da64d7e7c1d1"
    }
  }, {
    "fullUrl": "https://madie.cms.gov/Observation/c8b4d95c-bacb-41e2-b803-799cb50250c5",
    "resource": {
      "resourceType": "Observation",
      "id": "c8b4d95c-bacb-41e2-b803-799cb50250c5",
      "meta": {
        "profile": [ "http://hl7.org/fhir/us/core/StructureDefinition/us-core-bmi" ]
      },
      "status": "final",
      "category": [ {
        "coding": [ {
          "system": "http://terminology.hl7.org/CodeSystem/observation-category",
          "code": "vital-signs",
          "display": "Vital Signs"
        } ]
      } ],
      "code": {
        "coding": [ {
          "system": "http://loinc.org",
          "code": "39156-5",
          "display": "Body mass index (BMI) [Ratio]",
          "userSelected": true
        } ]
      },
      "subject": {
        "reference": "Patient/42e6b4d6-defc-4ec5-894f-e3333e3039a3"
      },
      "effectiveDateTime": "2026-01-01T00:30:00.000+00:00",
      "valueQuantity": {
        "value": 24.9,
        "unit": "kg/m2",
        "system": "http://unitsofmeasure.org",
        "code": "kg/m2"
      }
    },
    "request": {
      "method": "PUT",
      "url": "Observation/c8b4d95c-bacb-41e2-b803-799cb50250c5"
    }
  }, {
    "fullUrl": "https://madie.cms.gov/Coverage/14f399f9-cbf9-4be8-bd0d-55a90c8604a7",
    "resource": {
      "resourceType": "Coverage",
      "id": "14f399f9-cbf9-4be8-bd0d-55a90c8604a7",
      "meta": {
        "profile": [ "http://hl7.org/fhir/us/qicore/StructureDefinition/qicore-coverage" ]
      },
      "status": "active",
      "beneficiary": {
        "reference": "Patient/42e6b4d6-defc-4ec5-894f-e3333e3039a3"
      },
      "payor": [ {
        "reference": "Organization/38ecfe76-13e0-4574-99c6-1269b7f66d3c"
      } ]
    },
    "request": {
      "method": "PUT",
      "url": "Coverage/14f399f9-cbf9-4be8-bd0d-55a90c8604a7"
    }
  }, {
    "fullUrl": "https://madie.cms.gov/Organization/38ecfe76-13e0-4574-99c6-1269b7f66d3c",
    "resource": {
      "resourceType": "Organization",
      "id": "38ecfe76-13e0-4574-99c6-1269b7f66d3c",
      "meta": {
        "profile": [ "http://hl7.org/fhir/us/qicore/StructureDefinition/qicore-organization" ]
      },
      "identifier": [ {
        "use": "temp",
        "system": "urn:oid:2.16.840.1.113883.4.4",
        "value": "21-3259825"
      } ],
      "active": true,
      "type": [ {
        "coding": [ {
          "system": "http://terminology.hl7.org/CodeSystem/organization-type",
          "code": "pay",
          "display": "Payer"
        } ]
      } ],
      "name": "Blue Cross Blue Shield of Texas",
      "telecom": [ {
        "system": "phone",
        "value": "(+1) 972-766-6900"
      } ],
      "address": [ {
        "use": "billing",
        "type": "postal",
        "line": [ "P.O. Box 660044" ],
        "city": "Dallas",
        "state": "TX",
        "postalCode": "75266-0044",
        "country": "USA"
      } ]
    },
    "request": {
      "method": "PUT",
      "url": "Organization/38ecfe76-13e0-4574-99c6-1269b7f66d3c"
    }
  }, {
    "fullUrl": "https://madie.cms.gov/MeasureReport/88f57902-56fe-476c-8582-5a733fc9cf9e",
    "resource": {
      "resourceType": "MeasureReport",
      "id": "88f57902-56fe-476c-8582-5a733fc9cf9e",
      "meta": {
        "profile": [ "http://hl7.org/fhir/us/cqfmeasures/StructureDefinition/test-case-cqfm" ]
      },
      "contained": [ {
        "resourceType": "Parameters",
        "id": "4714b058-aa78-4509-aec6-c4644f8c1db2-parameters",
        "parameter": [ {
          "name": "subject",
          "valueString": "42e6b4d6-defc-4ec5-894f-e3333e3039a3"
        } ]
      } ],
      "extension": [ {
        "url": "http://hl7.org/fhir/StructureDefinition/cqf-inputParameters",
        "valueReference": {
          "reference": "#4714b058-aa78-4509-aec6-c4644f8c1db2-parameters"
        }
      }, {
        "url": "http://hl7.org/fhir/us/cqfmeasures/StructureDefinition/cqfm-testCaseDescription",
        "valueMarkdown": "Enc first day of MP, normal BMI at 24.9, no intervention needed"
      } ],
      "modifierExtension": [ {
        "url": "http://hl7.org/fhir/us/cqfmeasures/StructureDefinition/cqfm-isTestCase",
        "valueBoolean": true
      } ],
      "status": "complete",
      "type": "individual",
      "measure": "https://madie.cms.gov/Measure/CMS69FHIRPCSBMIScreenAndFollowUp",
      "period": {
        "start": "2026-01-01",
        "end": "2026-12-31"
      },
      "group": [ {
        "id": "Group_1",
        "population": [ {
          "id": "InitialPopulation_1",
          "code": {
            "coding": [ {
              "system": "http://terminology.hl7.org/CodeSystem/measure-population",
              "code": "initial-population",
              "display": "Initial Population"
            } ]
          },
          "count": 1
        }, {
          "id": "Denominator_1",
          "code": {
            "coding": [ {
              "system": "http://terminology.hl7.org/CodeSystem/measure-population",
              "code": "denominator",
              "display": "Denominator"
            } ]
          },
          "count": 1
        }, {
          "id": "DenominatorExclusion_1",
          "code": {
            "coding": [ {
              "system": "http://terminology.hl7.org/CodeSystem/measure-population",
              "code": "denominator-exclusion",
              "display": "Denominator Exclusion"
            } ]
          },
          "count": 0
        }, {
          "id": "Numerator_1",
          "code": {
            "coding": [ {
              "system": "http://terminology.hl7.org/CodeSystem/measure-population",
              "code": "numerator",
              "display": "Numerator"
            } ]
          },
          "count": 1
        }, {
          "id": "DenominatorException_1",
          "code": {
            "coding": [ {
              "system": "http://terminology.hl7.org/CodeSystem/measure-population",
              "code": "denominator-exception",
              "display": "Denominator Exception"
            } ]
          },
          "count": 0
        } ],
        "measureScore": {
          "value": 1.0
        }
      } ],
      "evaluatedResource": [ {
        "reference": "Patient/42e6b4d6-defc-4ec5-894f-e3333e3039a3"
      }, {
        "reference": "Encounter/0ffe40f5-f132-4f92-8b24-da64d7e7c1d1"
      }, {
        "reference": "Observation/c8b4d95c-bacb-41e2-b803-799cb50250c5"
      }, {
        "reference": "Coverage/14f399f9-cbf9-4be8-bd0d-55a90c8604a7"
      }, {
        "reference": "Organization/38ecfe76-13e0-4574-99c6-1269b7f66d3c"
      } ]
    },
    "request": {
      "method": "PUT",
      "url": "MeasureReport/88f57902-56fe-476c-8582-5a733fc9cf9e"
    }
  } ]
}