{
  "resourceType": "Bundle",
  "id": "DENEXPass-PalliativeCareObsOnJan1OfMPDuringInterval",
  "type": "transaction",
  "entry": [ {
    "fullUrl": "https://madie.cms.gov/Patient/e9b9b388-e663-4533-8484-7d930efd1851",
    "resource": {
      "resourceType": "Patient",
      "id": "e9b9b388-e663-4533-8484-7d930efd1851",
      "meta": {
        "profile": [ "http://hl7.org/fhir/us/qicore/StructureDefinition/qicore-patient" ]
      },
      "extension": [ {
        "url": "http://hl7.org/fhir/us/core/StructureDefinition/us-core-race",
        "extension": [ {
          "url": "ombCategory",
          "valueCoding": {
            "system": "urn:oid:2.16.840.1.113883.6.238",
            "code": "2028-9",
            "display": "Asian"
          }
        }, {
          "url": "text",
          "valueString": "Asian"
        } ]
      }, {
        "url": "http://hl7.org/fhir/us/core/StructureDefinition/us-core-ethnicity",
        "extension": [ {
          "url": "ombCategory",
          "valueCoding": {
            "system": "urn:oid:2.16.840.1.113883.6.238",
            "code": "2135-2",
            "display": "Hispanic or Latino"
          }
        }, {
          "url": "text",
          "valueString": "Hispanic or Latino"
        } ]
      } ],
      "identifier": [ {
        "system": "http://hospital.smarthealthit.org",
        "value": "999999995"
      } ],
      "name": [ {
        "family": "Bertha",
        "given": [ "Betty" ]
      } ],
      "gender": "female",
      "birthDate": "2007-12-31"
    },
    "request": {
      "method": "PUT",
      "url": "Patient/e9b9b388-e663-4533-8484-7d930efd1851"
    }
  }, {
    "fullUrl": "https://madie.cms.gov/Encounter/3bb36eda-4c9d-4a6b-92e2-35de05cb470a",
    "resource": {
      "resourceType": "Encounter",
      "id": "3bb36eda-4c9d-4a6b-92e2-35de05cb470a",
      "meta": {
        "profile": [ "http://hl7.org/fhir/us/qicore/StructureDefinition/qicore-encounter" ]
      },
      "status": "finished",
      "class": {
        "system": "http://terminology.hl7.org/CodeSystem/v3-ActCode",
        "code": "AMB",
        "display": "ambulatory"
      },
      "type": [ {
        "coding": [ {
          "system": "http://snomed.info/sct",
          "code": "185463005",
          "display": "Visit out of hours (procedure)"
        } ]
      } ],
      "subject": {
        "reference": "Patient/e9b9b388-e663-4533-8484-7d930efd1851"
      },
      "period": {
        "start": "2026-01-01T00:00:00.000+00:00",
        "end": "2026-01-01T00:00:00.000+00:00"
      }
    },
    "request": {
      "method": "PUT",
      "url": "Encounter/3bb36eda-4c9d-4a6b-92e2-35de05cb470a"
    }
  }, {
    "fullUrl": "https://madie.cms.gov/Condition/44e9c252-04c1-4d4a-be4c-884bcb6b81b8",
    "resource": {
      "resourceType": "Condition",
      "id": "44e9c252-04c1-4d4a-be4c-884bcb6b81b8",
      "meta": {
        "profile": [ "http://hl7.org/fhir/us/qicore/StructureDefinition/qicore-condition-encounter-diagnosis" ]
      },
      "clinicalStatus": {
        "coding": [ {
          "system": "http://terminology.hl7.org/CodeSystem/condition-clinical",
          "code": "active"
        } ]
      },
      "category": [ {
        "coding": [ {
          "system": "http://terminology.hl7.org/CodeSystem/condition-category",
          "code": "problem-list-item",
          "display": "Problem List Item"
        } ]
      } ],
      "code": {
        "coding": [ {
          "system": "http://snomed.info/sct",
          "code": "102781000119107",
          "display": "Sensory neuropathy due to type 1 diabetes mellitus (disorder)"
        } ]
      },
      "subject": {
        "reference": "Patient/e9b9b388-e663-4533-8484-7d930efd1851"
      },
      "onsetDateTime": "2026-01-01T00:00:00.000+00:00"
    },
    "request": {
      "method": "PUT",
      "url": "Condition/44e9c252-04c1-4d4a-be4c-884bcb6b81b8"
    }
  }, {
    "fullUrl": "https://madie.cms.gov/Observation/2d66904c-7486-49a9-9b49-16b4f280ede9",
    "resource": {
      "resourceType": "Observation",
      "id": "2d66904c-7486-49a9-9b49-16b4f280ede9",
      "meta": {
        "profile": [ "http://hl7.org/fhir/us/qicore/StructureDefinition/qicore-observation-screening-assessment" ]
      },
      "status": "final",
      "category": [ {
        "coding": [ {
          "system": "http://terminology.hl7.org/CodeSystem/observation-category",
          "code": "survey"
        } ]
      } ],
      "code": {
        "coding": [ {
          "system": "http://loinc.org",
          "code": "71007-9",
          "display": "Functional Assessment of Chronic Illness Therapy - Palliative Care Questionnaire (FACIT-Pal)"
        } ]
      },
      "subject": {
        "reference": "Patient/e9b9b388-e663-4533-8484-7d930efd1851"
      },
      "effectivePeriod": {
        "start": "2026-01-01T00:00:00.000+00:00",
        "end": "2026-01-01T00:00:00.000+00:00"
      }
    },
    "request": {
      "method": "PUT",
      "url": "Observation/2d66904c-7486-49a9-9b49-16b4f280ede9"
    }
  }, {
    "fullUrl": "https://madie.cms.gov/MeasureReport/a32bbe8c-9295-4687-8746-fb9516ab81da",
    "resource": {
      "resourceType": "MeasureReport",
      "id": "a32bbe8c-9295-4687-8746-fb9516ab81da",
      "meta": {
        "profile": [ "http://hl7.org/fhir/us/cqfmeasures/StructureDefinition/test-case-cqfm" ]
      },
      "contained": [ {
        "resourceType": "Parameters",
        "id": "c2ad225a-5654-4c87-a471-060d8c7be150-parameters",
        "parameter": [ {
          "name": "subject",
          "valueString": "e9b9b388-e663-4533-8484-7d930efd1851"
        } ]
      } ],
      "extension": [ {
        "url": "http://hl7.org/fhir/StructureDefinition/cqf-inputParameters",
        "valueReference": {
          "reference": "#c2ad225a-5654-4c87-a471-060d8c7be150-parameters"
        }
      }, {
        "url": "http://hl7.org/fhir/us/cqfmeasures/StructureDefinition/cqfm-testCaseDescription",
        "valueMarkdown": "Patient 18yo w/ an Office Visit Encounter 1/1 of the MP, Diabetes Condition ending 1/1 during the MP, & a Palliative Care Observation that starts on 1/1 of the MP During Observation Interval."
      } ],
      "modifierExtension": [ {
        "url": "http://hl7.org/fhir/us/cqfmeasures/StructureDefinition/cqfm-isTestCase",
        "valueBoolean": true
      } ],
      "status": "complete",
      "type": "individual",
      "measure": "https://madie.cms.gov/Measure/CMS131FHIRDiabetesEyeExam",
      "period": {
        "start": "2026-01-01",
        "end": "2026-12-31"
      },
      "group": [ {
        "id": "Group_1",
        "population": [ {
          "id": "InitialPopulation_1",
          "code": {
            "coding": [ {
              "system": "http://terminology.hl7.org/CodeSystem/measure-population",
              "code": "initial-population",
              "display": "Initial Population"
            } ]
          },
          "count": 1
        }, {
          "id": "Denominator_1",
          "code": {
            "coding": [ {
              "system": "http://terminology.hl7.org/CodeSystem/measure-population",
              "code": "denominator",
              "display": "Denominator"
            } ]
          },
          "count": 1
        }, {
          "id": "DenominatorExclusion_1",
          "code": {
            "coding": [ {
              "system": "http://terminology.hl7.org/CodeSystem/measure-population",
              "code": "denominator-exclusion",
              "display": "Denominator Exclusion"
            } ]
          },
          "count": 1
        }, {
          "id": "Numerator_1",
          "code": {
            "coding": [ {
              "system": "http://terminology.hl7.org/CodeSystem/measure-population",
              "code": "numerator",
              "display": "Numerator"
            } ]
          },
          "count": 0
        } ],
        "measureScore": {
          "value": 1.0
        }
      } ],
      "evaluatedResource": [ {
        "reference": "Patient/e9b9b388-e663-4533-8484-7d930efd1851"
      }, {
        "reference": "Encounter/3bb36eda-4c9d-4a6b-92e2-35de05cb470a"
      }, {
        "reference": "Condition/44e9c252-04c1-4d4a-be4c-884bcb6b81b8"
      }, {
        "reference": "Observation/2d66904c-7486-49a9-9b49-16b4f280ede9"
      } ]
    },
    "request": {
      "method": "PUT",
      "url": "MeasureReport/a32bbe8c-9295-4687-8746-fb9516ab81da"
    }
  } ]
}