{
  "resourceType": "Bundle",
  "id": "62fbe4dbbf5132f90ee35d37",
  "type": "transaction",
  "entry": [ {
    "fullUrl": "https://madie.cms.gov/Patient/6f0c3642-5efc-4923-ac24-9f5e9d1831d6",
    "resource": {
      "resourceType": "Patient",
      "id": "6f0c3642-5efc-4923-ac24-9f5e9d1831d6",
      "meta": {
        "profile": [ "http://hl7.org/fhir/us/qicore/StructureDefinition/qicore-patient" ]
      },
      "extension": [ {
        "url": "http://hl7.org/fhir/us/core/StructureDefinition/us-core-race",
        "extension": [ {
          "url": "ombCategory",
          "valueCoding": {
            "system": "urn:oid:2.16.840.1.113883.6.238",
            "code": "2054-5",
            "display": "Black or African American",
            "userSelected": true
          }
        }, {
          "url": "text",
          "valueString": "Black or African American"
        } ]
      }, {
        "url": "http://hl7.org/fhir/us/core/StructureDefinition/us-core-ethnicity",
        "extension": [ {
          "url": "ombCategory",
          "valueCoding": {
            "system": "urn:oid:2.16.840.1.113883.6.238",
            "code": "2186-5",
            "display": "Not Hispanic or Latino",
            "userSelected": true
          }
        }, {
          "url": "text",
          "valueString": "Not Hispanic or Latino"
        } ]
      } ],
      "identifier": [ {
        "type": {
          "coding": [ {
            "system": "http://terminology.hl7.org/CodeSystem/v2-0203",
            "code": "MR"
          } ]
        },
        "system": "https://bonnie-fhir.healthit.gov/",
        "value": "62fbe4dbbf5132f90ee35d37"
      } ],
      "name": [ {
        "family": "DENEXFail",
        "given": [ "DischargeToHospiceFacilityAfterMP" ]
      } ],
      "gender": "male",
      "birthDate": "1946-10-15"
    },
    "request": {
      "method": "PUT",
      "url": "Patient/6f0c3642-5efc-4923-ac24-9f5e9d1831d6"
    }
  }, {
    "fullUrl": "https://madie.cms.gov/Encounter/5107d41f-3b94-4433-86f7-72d0d89a5b2d",
    "resource": {
      "resourceType": "Encounter",
      "id": "5107d41f-3b94-4433-86f7-72d0d89a5b2d",
      "meta": {
        "profile": [ "http://hl7.org/fhir/us/qicore/StructureDefinition/qicore-encounter" ]
      },
      "status": "finished",
      "class": {
        "system": "http://terminology.hl7.org/CodeSystem/v3-ActCode",
        "code": "AMB",
        "display": "ambulatory"
      },
      "type": [ {
        "coding": [ {
          "system": "http://snomed.info/sct",
          "version": "2022-03",
          "code": "10197000",
          "display": "Psychiatric interview and evaluation (procedure)",
          "userSelected": true
        } ]
      } ],
      "subject": {
        "reference": "Patient/6f0c3642-5efc-4923-ac24-9f5e9d1831d6"
      },
      "period": {
        "start": "2026-01-01T00:00:00.000+00:00",
        "end": "2026-01-01T00:30:00.000+00:00"
      }
    },
    "request": {
      "method": "PUT",
      "url": "Encounter/5107d41f-3b94-4433-86f7-72d0d89a5b2d"
    }
  }, {
    "fullUrl": "https://madie.cms.gov/Observation/3eaeb11e-ae4c-4edb-b362-ed3145499ffc",
    "resource": {
      "resourceType": "Observation",
      "id": "3eaeb11e-ae4c-4edb-b362-ed3145499ffc",
      "meta": {
        "profile": [ "http://hl7.org/fhir/us/core/StructureDefinition/us-core-bmi" ]
      },
      "status": "final",
      "category": [ {
        "coding": [ {
          "system": "http://terminology.hl7.org/CodeSystem/observation-category",
          "code": "vital-signs",
          "display": "Vital Signs"
        } ]
      } ],
      "code": {
        "coding": [ {
          "system": "http://loinc.org",
          "code": "39156-5",
          "display": "Body mass index (BMI) [Ratio]",
          "userSelected": true
        } ]
      },
      "subject": {
        "reference": "Patient/6f0c3642-5efc-4923-ac24-9f5e9d1831d6"
      },
      "effectiveDateTime": "2026-01-01T00:30:00.000+00:00",
      "valueQuantity": {
        "value": 25,
        "unit": "kg/m2",
        "system": "http://unitsofmeasure.org",
        "code": "kg/m2"
      }
    },
    "request": {
      "method": "PUT",
      "url": "Observation/3eaeb11e-ae4c-4edb-b362-ed3145499ffc"
    }
  }, {
    "fullUrl": "https://madie.cms.gov/Procedure/99ee2ff2-01fa-475e-96b7-7c9a6a34ba54",
    "resource": {
      "resourceType": "Procedure",
      "id": "99ee2ff2-01fa-475e-96b7-7c9a6a34ba54",
      "meta": {
        "profile": [ "http://hl7.org/fhir/us/qicore/StructureDefinition/qicore-procedure" ]
      },
      "extension": [ {
        "url": "http://hl7.org/fhir/us/qicore/StructureDefinition/qicore-recorded",
        "valueDateTime": "2026-01-01T00:30:00.000+00:00"
      } ],
      "status": "completed",
      "code": {
        "coding": [ {
          "system": "http://snomed.info/sct",
          "version": "2022-03",
          "code": "182922004",
          "display": "Dietary regime (regime/therapy)",
          "userSelected": true
        } ]
      },
      "subject": {
        "reference": "Patient/6f0c3642-5efc-4923-ac24-9f5e9d1831d6"
      },
      "performedDateTime": "2026-01-01T00:30:00.000+00:00",
      "reasonCode": [ {
        "coding": [ {
          "system": "http://hl7.org/fhir/sid/icd-10-cm",
          "code": "E66.01",
          "display": "Morbid (severe) obesity due to excess calories",
          "userSelected": true
        } ]
      } ]
    },
    "request": {
      "method": "PUT",
      "url": "Procedure/99ee2ff2-01fa-475e-96b7-7c9a6a34ba54"
    }
  }, {
    "fullUrl": "https://madie.cms.gov/Encounter/eb8f0a14-129a-4b58-898f-bdd4166cdc62",
    "resource": {
      "resourceType": "Encounter",
      "id": "eb8f0a14-129a-4b58-898f-bdd4166cdc62",
      "meta": {
        "profile": [ "http://hl7.org/fhir/us/qicore/StructureDefinition/qicore-encounter" ]
      },
      "status": "finished",
      "class": {
        "system": "http://terminology.hl7.org/CodeSystem/v3-ActCode",
        "code": "AMB",
        "display": "ambulatory"
      },
      "type": [ {
        "coding": [ {
          "system": "http://snomed.info/sct",
          "version": "2022-03",
          "code": "183452005",
          "display": "Emergency hospital admission (procedure)",
          "userSelected": true
        } ]
      } ],
      "subject": {
        "reference": "Patient/6f0c3642-5efc-4923-ac24-9f5e9d1831d6"
      },
      "period": {
        "start": "2026-02-26T08:00:00.000+00:00",
        "end": "2026-03-01T08:15:00.000+00:00"
      },
      "hospitalization": {
        "dischargeDisposition": {
          "coding": [ {
            "system": "http://snomed.info/sct",
            "code": "428361000124107",
            "display": "Discharge to home for hospice care (procedure)",
            "userSelected": true
          } ]
        }
      }
    },
    "request": {
      "method": "PUT",
      "url": "Encounter/eb8f0a14-129a-4b58-898f-bdd4166cdc62"
    }
  }, {
    "fullUrl": "https://madie.cms.gov/Coverage/757d5a88-3c78-441c-9a8a-63e7061a267e",
    "resource": {
      "resourceType": "Coverage",
      "id": "757d5a88-3c78-441c-9a8a-63e7061a267e",
      "meta": {
        "profile": [ "http://hl7.org/fhir/us/qicore/StructureDefinition/qicore-coverage" ]
      },
      "status": "active",
      "beneficiary": {
        "reference": "Patient/6f0c3642-5efc-4923-ac24-9f5e9d1831d6"
      },
      "payor": [ {
        "reference": "Organization/07731d06-2c87-49bf-ad9c-8f875dd8fae3"
      } ]
    },
    "request": {
      "method": "PUT",
      "url": "Coverage/757d5a88-3c78-441c-9a8a-63e7061a267e"
    }
  }, {
    "fullUrl": "https://madie.cms.gov/Organization/07731d06-2c87-49bf-ad9c-8f875dd8fae3",
    "resource": {
      "resourceType": "Organization",
      "id": "07731d06-2c87-49bf-ad9c-8f875dd8fae3",
      "meta": {
        "profile": [ "http://hl7.org/fhir/us/qicore/StructureDefinition/qicore-organization" ]
      },
      "identifier": [ {
        "use": "temp",
        "system": "urn:oid:2.16.840.1.113883.4.4",
        "value": "21-3259825"
      } ],
      "active": true,
      "type": [ {
        "coding": [ {
          "system": "http://terminology.hl7.org/CodeSystem/organization-type",
          "code": "pay",
          "display": "Payer"
        } ]
      } ],
      "name": "Blue Cross Blue Shield of Texas",
      "telecom": [ {
        "system": "phone",
        "value": "(+1) 972-766-6900"
      } ],
      "address": [ {
        "use": "billing",
        "type": "postal",
        "line": [ "P.O. Box 660044" ],
        "city": "Dallas",
        "state": "TX",
        "postalCode": "75266-0044",
        "country": "USA"
      } ]
    },
    "request": {
      "method": "PUT",
      "url": "Organization/07731d06-2c87-49bf-ad9c-8f875dd8fae3"
    }
  }, {
    "fullUrl": "https://madie.cms.gov/MeasureReport/19cfba58-52ae-4d31-8e34-be43fe066a8a",
    "resource": {
      "resourceType": "MeasureReport",
      "id": "19cfba58-52ae-4d31-8e34-be43fe066a8a",
      "meta": {
        "profile": [ "http://hl7.org/fhir/us/cqfmeasures/StructureDefinition/test-case-cqfm" ]
      },
      "contained": [ {
        "resourceType": "Parameters",
        "id": "74961cf2-4148-4dc0-8502-f9f464967b27-parameters",
        "parameter": [ {
          "name": "subject",
          "valueString": "6f0c3642-5efc-4923-ac24-9f5e9d1831d6"
        } ]
      } ],
      "extension": [ {
        "url": "http://hl7.org/fhir/StructureDefinition/cqf-inputParameters",
        "valueReference": {
          "reference": "#74961cf2-4148-4dc0-8502-f9f464967b27-parameters"
        }
      }, {
        "url": "http://hl7.org/fhir/us/cqfmeasures/StructureDefinition/cqfm-testCaseDescription",
        "valueMarkdown": "Adult, had amb enc first day of MP, has BMI high at 25 kg/m2, was discharge to hospice during MP"
      } ],
      "modifierExtension": [ {
        "url": "http://hl7.org/fhir/us/cqfmeasures/StructureDefinition/cqfm-isTestCase",
        "valueBoolean": true
      } ],
      "status": "complete",
      "type": "individual",
      "measure": "https://madie.cms.gov/Measure/CMS69FHIRPCSBMIScreenAndFollowUp",
      "period": {
        "start": "2026-01-01",
        "end": "2026-12-31"
      },
      "group": [ {
        "id": "Group_1",
        "population": [ {
          "id": "InitialPopulation_1",
          "code": {
            "coding": [ {
              "system": "http://terminology.hl7.org/CodeSystem/measure-population",
              "code": "initial-population",
              "display": "Initial Population"
            } ]
          },
          "count": 1
        }, {
          "id": "Denominator_1",
          "code": {
            "coding": [ {
              "system": "http://terminology.hl7.org/CodeSystem/measure-population",
              "code": "denominator",
              "display": "Denominator"
            } ]
          },
          "count": 1
        }, {
          "id": "DenominatorExclusion_1",
          "code": {
            "coding": [ {
              "system": "http://terminology.hl7.org/CodeSystem/measure-population",
              "code": "denominator-exclusion",
              "display": "Denominator Exclusion"
            } ]
          },
          "count": 1
        }, {
          "id": "Numerator_1",
          "code": {
            "coding": [ {
              "system": "http://terminology.hl7.org/CodeSystem/measure-population",
              "code": "numerator",
              "display": "Numerator"
            } ]
          },
          "count": 0
        }, {
          "id": "DenominatorException_1",
          "code": {
            "coding": [ {
              "system": "http://terminology.hl7.org/CodeSystem/measure-population",
              "code": "denominator-exception",
              "display": "Denominator Exception"
            } ]
          },
          "count": 0
        } ],
        "measureScore": {
          "value": 1.0
        }
      } ],
      "evaluatedResource": [ {
        "reference": "Patient/6f0c3642-5efc-4923-ac24-9f5e9d1831d6"
      }, {
        "reference": "Encounter/5107d41f-3b94-4433-86f7-72d0d89a5b2d"
      }, {
        "reference": "Observation/3eaeb11e-ae4c-4edb-b362-ed3145499ffc"
      }, {
        "reference": "Procedure/99ee2ff2-01fa-475e-96b7-7c9a6a34ba54"
      }, {
        "reference": "Encounter/eb8f0a14-129a-4b58-898f-bdd4166cdc62"
      }, {
        "reference": "Coverage/757d5a88-3c78-441c-9a8a-63e7061a267e"
      }, {
        "reference": "Organization/07731d06-2c87-49bf-ad9c-8f875dd8fae3"
      } ]
    },
    "request": {
      "method": "PUT",
      "url": "MeasureReport/19cfba58-52ae-4d31-8e34-be43fe066a8a"
    }
  } ]
}