{
  "resourceType": "Bundle",
  "id": "62aa5f74c4be4c506d4a5349",
  "type": "transaction",
  "entry": [ {
    "fullUrl": "https://madie.cms.gov/Patient/6092a810-f9e0-4975-9582-37bbb06e8e56",
    "resource": {
      "resourceType": "Patient",
      "id": "6092a810-f9e0-4975-9582-37bbb06e8e56",
      "meta": {
        "profile": [ "http://hl7.org/fhir/us/qicore/StructureDefinition/qicore-patient" ]
      },
      "extension": [ {
        "url": "http://hl7.org/fhir/us/core/StructureDefinition/us-core-race",
        "extension": [ {
          "url": "ombCategory",
          "valueCoding": {
            "system": "urn:oid:2.16.840.1.113883.6.238",
            "code": "2028-9",
            "display": "Asian",
            "userSelected": true
          }
        }, {
          "url": "text",
          "valueString": "Asian"
        } ]
      }, {
        "url": "http://hl7.org/fhir/us/core/StructureDefinition/us-core-ethnicity",
        "extension": [ {
          "url": "ombCategory",
          "valueCoding": {
            "system": "urn:oid:2.16.840.1.113883.6.238",
            "code": "2186-5",
            "display": "Not Hispanic or Latino",
            "userSelected": true
          }
        }, {
          "url": "text",
          "valueString": "Not Hispanic or Latino"
        } ]
      } ],
      "identifier": [ {
        "type": {
          "coding": [ {
            "system": "http://terminology.hl7.org/CodeSystem/v2-0203",
            "code": "MR"
          } ]
        },
        "system": "https://bonnie-fhir.healthit.gov/",
        "value": "62aa5f74c4be4c506d4a5349"
      } ],
      "name": [ {
        "family": "DENEXPass",
        "given": [ "PalliativeCareEncounter" ]
      } ],
      "gender": "female",
      "birthDate": "2001-01-01"
    },
    "request": {
      "method": "PUT",
      "url": "Patient/6092a810-f9e0-4975-9582-37bbb06e8e56"
    }
  }, {
    "fullUrl": "https://madie.cms.gov/Encounter/48ecac06-9e34-438d-b1a1-2c9220d897fa",
    "resource": {
      "resourceType": "Encounter",
      "id": "48ecac06-9e34-438d-b1a1-2c9220d897fa",
      "meta": {
        "profile": [ "http://hl7.org/fhir/us/qicore/StructureDefinition/qicore-encounter" ]
      },
      "status": "finished",
      "class": {
        "system": "http://terminology.hl7.org/CodeSystem/v3-ActCode",
        "code": "AMB",
        "display": "ambulatory"
      },
      "type": [ {
        "coding": [ {
          "system": "http://snomed.info/sct",
          "version": "2022-03",
          "code": "10197000",
          "display": "Psychiatric interview and evaluation (procedure)",
          "userSelected": true
        } ]
      } ],
      "subject": {
        "reference": "Patient/6092a810-f9e0-4975-9582-37bbb06e8e56"
      },
      "period": {
        "start": "2026-12-31T23:30:00.000+00:00",
        "end": "2026-12-31T23:59:00.000+00:00"
      }
    },
    "request": {
      "method": "PUT",
      "url": "Encounter/48ecac06-9e34-438d-b1a1-2c9220d897fa"
    }
  }, {
    "fullUrl": "https://madie.cms.gov/Encounter/f94d5db0-66e5-4dcf-8f75-45e047c1f865",
    "resource": {
      "resourceType": "Encounter",
      "id": "f94d5db0-66e5-4dcf-8f75-45e047c1f865",
      "meta": {
        "profile": [ "http://hl7.org/fhir/us/qicore/StructureDefinition/qicore-encounter" ]
      },
      "status": "finished",
      "class": {
        "system": "http://terminology.hl7.org/CodeSystem/v3-ActCode",
        "code": "AMB",
        "display": "ambulatory"
      },
      "type": [ {
        "coding": [ {
          "system": "http://snomed.info/sct",
          "version": "2022-03",
          "code": "305284002",
          "display": "Admission by palliative care physician (procedure)",
          "userSelected": true
        } ]
      } ],
      "subject": {
        "reference": "Patient/6092a810-f9e0-4975-9582-37bbb06e8e56"
      },
      "period": {
        "start": "2026-12-31T23:30:00.000+00:00",
        "end": "2026-12-31T23:59:00.000+00:00"
      }
    },
    "request": {
      "method": "PUT",
      "url": "Encounter/f94d5db0-66e5-4dcf-8f75-45e047c1f865"
    }
  }, {
    "fullUrl": "https://madie.cms.gov/Coverage/89f52c27-508d-4463-b3b8-ab9c1e8a6f31",
    "resource": {
      "resourceType": "Coverage",
      "id": "89f52c27-508d-4463-b3b8-ab9c1e8a6f31",
      "meta": {
        "profile": [ "http://hl7.org/fhir/us/qicore/StructureDefinition/qicore-coverage" ]
      },
      "status": "active",
      "beneficiary": {
        "reference": "Patient/6092a810-f9e0-4975-9582-37bbb06e8e56"
      },
      "payor": [ {
        "reference": "Organization/4449b6eb-8870-4468-a614-329afc30347b"
      } ]
    },
    "request": {
      "method": "PUT",
      "url": "Coverage/89f52c27-508d-4463-b3b8-ab9c1e8a6f31"
    }
  }, {
    "fullUrl": "https://madie.cms.gov/Organization/4449b6eb-8870-4468-a614-329afc30347b",
    "resource": {
      "resourceType": "Organization",
      "id": "4449b6eb-8870-4468-a614-329afc30347b",
      "meta": {
        "profile": [ "http://hl7.org/fhir/us/qicore/StructureDefinition/qicore-organization" ]
      },
      "identifier": [ {
        "use": "temp",
        "system": "urn:oid:2.16.840.1.113883.4.4",
        "value": "21-3259825"
      } ],
      "active": true,
      "type": [ {
        "coding": [ {
          "system": "http://terminology.hl7.org/CodeSystem/organization-type",
          "code": "pay",
          "display": "Payer"
        } ]
      } ],
      "name": "Blue Cross Blue Shield of Texas",
      "telecom": [ {
        "system": "phone",
        "value": "(+1) 972-766-6900"
      } ],
      "address": [ {
        "use": "billing",
        "type": "postal",
        "line": [ "P.O. Box 660044" ],
        "city": "Dallas",
        "state": "TX",
        "postalCode": "75266-0044",
        "country": "USA"
      } ]
    },
    "request": {
      "method": "PUT",
      "url": "Organization/4449b6eb-8870-4468-a614-329afc30347b"
    }
  }, {
    "fullUrl": "https://madie.cms.gov/MeasureReport/22f72895-c8fc-44ee-a119-570bbd77a2e3",
    "resource": {
      "resourceType": "MeasureReport",
      "id": "22f72895-c8fc-44ee-a119-570bbd77a2e3",
      "meta": {
        "profile": [ "http://hl7.org/fhir/us/cqfmeasures/StructureDefinition/test-case-cqfm" ]
      },
      "contained": [ {
        "resourceType": "Parameters",
        "id": "9995c3d0-f49a-4a64-8a45-84399f838798-parameters",
        "parameter": [ {
          "name": "subject",
          "valueString": "6092a810-f9e0-4975-9582-37bbb06e8e56"
        } ]
      } ],
      "extension": [ {
        "url": "http://hl7.org/fhir/StructureDefinition/cqf-inputParameters",
        "valueReference": {
          "reference": "#9995c3d0-f49a-4a64-8a45-84399f838798-parameters"
        }
      }, {
        "url": "http://hl7.org/fhir/us/cqfmeasures/StructureDefinition/cqfm-testCaseDescription",
        "valueMarkdown": "Palliative Enc last 30 minutes of the last day of the MP, age 24, "
      } ],
      "modifierExtension": [ {
        "url": "http://hl7.org/fhir/us/cqfmeasures/StructureDefinition/cqfm-isTestCase",
        "valueBoolean": true
      } ],
      "status": "complete",
      "type": "individual",
      "measure": "https://madie.cms.gov/Measure/CMS69FHIRPCSBMIScreenAndFollowUp",
      "period": {
        "start": "2026-01-01",
        "end": "2026-12-31"
      },
      "group": [ {
        "id": "Group_1",
        "population": [ {
          "id": "InitialPopulation_1",
          "code": {
            "coding": [ {
              "system": "http://terminology.hl7.org/CodeSystem/measure-population",
              "code": "initial-population",
              "display": "Initial Population"
            } ]
          },
          "count": 1
        }, {
          "id": "Denominator_1",
          "code": {
            "coding": [ {
              "system": "http://terminology.hl7.org/CodeSystem/measure-population",
              "code": "denominator",
              "display": "Denominator"
            } ]
          },
          "count": 1
        }, {
          "id": "DenominatorExclusion_1",
          "code": {
            "coding": [ {
              "system": "http://terminology.hl7.org/CodeSystem/measure-population",
              "code": "denominator-exclusion",
              "display": "Denominator Exclusion"
            } ]
          },
          "count": 1
        }, {
          "id": "Numerator_1",
          "code": {
            "coding": [ {
              "system": "http://terminology.hl7.org/CodeSystem/measure-population",
              "code": "numerator",
              "display": "Numerator"
            } ]
          },
          "count": 0
        }, {
          "id": "DenominatorException_1",
          "code": {
            "coding": [ {
              "system": "http://terminology.hl7.org/CodeSystem/measure-population",
              "code": "denominator-exception",
              "display": "Denominator Exception"
            } ]
          },
          "count": 0
        } ],
        "measureScore": {
          "value": 1.0
        }
      } ],
      "evaluatedResource": [ {
        "reference": "Patient/6092a810-f9e0-4975-9582-37bbb06e8e56"
      }, {
        "reference": "Encounter/48ecac06-9e34-438d-b1a1-2c9220d897fa"
      }, {
        "reference": "Encounter/f94d5db0-66e5-4dcf-8f75-45e047c1f865"
      }, {
        "reference": "Coverage/89f52c27-508d-4463-b3b8-ab9c1e8a6f31"
      }, {
        "reference": "Organization/4449b6eb-8870-4468-a614-329afc30347b"
      } ]
    },
    "request": {
      "method": "PUT",
      "url": "MeasureReport/22f72895-c8fc-44ee-a119-570bbd77a2e3"
    }
  } ]
}