{
  "resourceType": "Bundle",
  "id": "62df26920056b6e23ec675a3",
  "type": "transaction",
  "entry": [ {
    "fullUrl": "https://madie.cms.gov/Patient/463dd868-997d-472f-962c-96383fd2a5c4",
    "resource": {
      "resourceType": "Patient",
      "id": "463dd868-997d-472f-962c-96383fd2a5c4",
      "meta": {
        "profile": [ "http://hl7.org/fhir/us/qicore/StructureDefinition/qicore-patient" ]
      },
      "extension": [ {
        "url": "http://hl7.org/fhir/us/core/StructureDefinition/us-core-race",
        "extension": [ {
          "url": "ombCategory",
          "valueCoding": {
            "system": "urn:oid:2.16.840.1.113883.6.238",
            "code": "2106-3",
            "display": "White",
            "userSelected": true
          }
        }, {
          "url": "text",
          "valueString": "White"
        } ]
      }, {
        "url": "http://hl7.org/fhir/us/core/StructureDefinition/us-core-ethnicity",
        "extension": [ {
          "url": "ombCategory",
          "valueCoding": {
            "system": "urn:oid:2.16.840.1.113883.6.238",
            "code": "2186-5",
            "display": "Not Hispanic or Latino",
            "userSelected": true
          }
        }, {
          "url": "text",
          "valueString": "Not Hispanic or Latino"
        } ]
      } ],
      "identifier": [ {
        "type": {
          "coding": [ {
            "system": "http://terminology.hl7.org/CodeSystem/v2-0203",
            "code": "MR"
          } ]
        },
        "system": "https://bonnie-fhir.healthit.gov/",
        "value": "62df26920056b6e23ec675a3"
      } ],
      "name": [ {
        "family": "NUMERPass",
        "given": [ "LowBMIAndInterventionPerformedCondition" ]
      } ],
      "gender": "unknown",
      "birthDate": "1957-11-07"
    },
    "request": {
      "method": "PUT",
      "url": "Patient/463dd868-997d-472f-962c-96383fd2a5c4"
    }
  }, {
    "fullUrl": "https://madie.cms.gov/Encounter/3a5412c5-ac87-4dbe-9709-76b01fde3a8d",
    "resource": {
      "resourceType": "Encounter",
      "id": "3a5412c5-ac87-4dbe-9709-76b01fde3a8d",
      "meta": {
        "profile": [ "http://hl7.org/fhir/us/qicore/StructureDefinition/qicore-encounter" ]
      },
      "status": "finished",
      "class": {
        "system": "http://terminology.hl7.org/CodeSystem/v3-ActCode",
        "code": "AMB",
        "display": "ambulatory"
      },
      "type": [ {
        "coding": [ {
          "system": "http://snomed.info/sct",
          "version": "2022-03",
          "code": "10197000",
          "display": "Psychiatric interview and evaluation (procedure)",
          "userSelected": true
        } ]
      } ],
      "subject": {
        "reference": "Patient/463dd868-997d-472f-962c-96383fd2a5c4"
      },
      "period": {
        "start": "2026-01-01T00:00:00.000+00:00",
        "end": "2026-01-01T00:30:00.000+00:00"
      }
    },
    "request": {
      "method": "PUT",
      "url": "Encounter/3a5412c5-ac87-4dbe-9709-76b01fde3a8d"
    }
  }, {
    "fullUrl": "https://madie.cms.gov/Observation/12f69684-96c5-4451-9e7e-d47f4b306315",
    "resource": {
      "resourceType": "Observation",
      "id": "12f69684-96c5-4451-9e7e-d47f4b306315",
      "meta": {
        "profile": [ "http://hl7.org/fhir/us/core/StructureDefinition/us-core-bmi" ]
      },
      "status": "final",
      "category": [ {
        "coding": [ {
          "system": "http://terminology.hl7.org/CodeSystem/observation-category",
          "code": "vital-signs",
          "display": "Vital Signs"
        } ]
      } ],
      "code": {
        "coding": [ {
          "system": "http://loinc.org",
          "code": "39156-5",
          "display": "Body mass index (BMI) [Ratio]",
          "userSelected": true
        } ]
      },
      "subject": {
        "reference": "Patient/463dd868-997d-472f-962c-96383fd2a5c4"
      },
      "effectiveDateTime": "2026-01-01T00:30:00.000+00:00",
      "valueQuantity": {
        "value": 18.51,
        "unit": "kg/m2",
        "system": "http://unitsofmeasure.org",
        "code": "kg/m2"
      }
    },
    "request": {
      "method": "PUT",
      "url": "Observation/12f69684-96c5-4451-9e7e-d47f4b306315"
    }
  }, {
    "fullUrl": "https://madie.cms.gov/Procedure/0124e86c-e31e-46e5-917e-8066f3f846a6",
    "resource": {
      "resourceType": "Procedure",
      "id": "0124e86c-e31e-46e5-917e-8066f3f846a6",
      "meta": {
        "profile": [ "http://hl7.org/fhir/us/qicore/StructureDefinition/qicore-procedure" ]
      },
      "extension": [ {
        "url": "http://hl7.org/fhir/us/qicore/StructureDefinition/qicore-recorded",
        "valueDateTime": "2026-01-01T00:30:00.000+00:00"
      } ],
      "status": "completed",
      "code": {
        "coding": [ {
          "system": "http://snomed.info/sct",
          "version": "2022-03",
          "code": "182922004",
          "display": "Dietary regime (regime/therapy)",
          "userSelected": true
        } ]
      },
      "subject": {
        "reference": "Patient/463dd868-997d-472f-962c-96383fd2a5c4"
      },
      "performedDateTime": "2026-01-01T00:30:00.000+00:00"
    },
    "request": {
      "method": "PUT",
      "url": "Procedure/0124e86c-e31e-46e5-917e-8066f3f846a6"
    }
  }, {
    "fullUrl": "https://madie.cms.gov/Condition/2931d4f5-7134-4d37-a76d-9ec6f3310196",
    "resource": {
      "resourceType": "Condition",
      "id": "2931d4f5-7134-4d37-a76d-9ec6f3310196",
      "meta": {
        "profile": [ "http://hl7.org/fhir/us/qicore/StructureDefinition/qicore-condition-problems-health-concerns" ]
      },
      "clinicalStatus": {
        "coding": [ {
          "system": "http://terminology.hl7.org/CodeSystem/condition-clinical",
          "code": "active",
          "display": "active",
          "userSelected": true
        } ]
      },
      "category": [ {
        "coding": [ {
          "system": "http://hl7.org/fhir/us/core/CodeSystem/condition-category",
          "code": "health-concern",
          "display": "Health Concern"
        }, {
          "system": "http://snomed.info/sct",
          "code": "439401001",
          "display": "Diagnosis"
        } ]
      } ],
      "code": {
        "coding": [ {
          "system": "http://snomed.info/sct",
          "version": "2022-03",
          "code": "248342006",
          "display": "Underweight (finding)",
          "userSelected": true
        } ]
      },
      "subject": {
        "reference": "Patient/463dd868-997d-472f-962c-96383fd2a5c4"
      },
      "onsetDateTime": "2026-01-01T00:30:00.000+00:00"
    },
    "request": {
      "method": "PUT",
      "url": "Condition/2931d4f5-7134-4d37-a76d-9ec6f3310196"
    }
  }, {
    "fullUrl": "https://madie.cms.gov/Coverage/479953f8-302b-4b96-bc03-0faf6df98229",
    "resource": {
      "resourceType": "Coverage",
      "id": "479953f8-302b-4b96-bc03-0faf6df98229",
      "meta": {
        "profile": [ "http://hl7.org/fhir/us/qicore/StructureDefinition/qicore-coverage" ]
      },
      "status": "active",
      "beneficiary": {
        "reference": "Patient/463dd868-997d-472f-962c-96383fd2a5c4"
      },
      "payor": [ {
        "reference": "Organization/746af0e5-681b-4290-9992-7e05eb82a760"
      } ]
    },
    "request": {
      "method": "PUT",
      "url": "Coverage/479953f8-302b-4b96-bc03-0faf6df98229"
    }
  }, {
    "fullUrl": "https://madie.cms.gov/Organization/746af0e5-681b-4290-9992-7e05eb82a760",
    "resource": {
      "resourceType": "Organization",
      "id": "746af0e5-681b-4290-9992-7e05eb82a760",
      "meta": {
        "profile": [ "http://hl7.org/fhir/us/qicore/StructureDefinition/qicore-organization" ]
      },
      "identifier": [ {
        "use": "temp",
        "system": "urn:oid:2.16.840.1.113883.4.4",
        "value": "21-3259825"
      } ],
      "active": true,
      "type": [ {
        "coding": [ {
          "system": "http://terminology.hl7.org/CodeSystem/organization-type",
          "code": "pay",
          "display": "Payer"
        } ]
      } ],
      "name": "Blue Cross Blue Shield of Texas",
      "telecom": [ {
        "system": "phone",
        "value": "(+1) 972-766-6900"
      } ],
      "address": [ {
        "use": "billing",
        "type": "postal",
        "line": [ "P.O. Box 660044" ],
        "city": "Dallas",
        "state": "TX",
        "postalCode": "75266-0044",
        "country": "USA"
      } ]
    },
    "request": {
      "method": "PUT",
      "url": "Organization/746af0e5-681b-4290-9992-7e05eb82a760"
    }
  }, {
    "fullUrl": "https://madie.cms.gov/MeasureReport/68eac9ef-57db-4572-a5db-856aab5fda58",
    "resource": {
      "resourceType": "MeasureReport",
      "id": "68eac9ef-57db-4572-a5db-856aab5fda58",
      "meta": {
        "profile": [ "http://hl7.org/fhir/us/cqfmeasures/StructureDefinition/test-case-cqfm" ]
      },
      "contained": [ {
        "resourceType": "Parameters",
        "id": "e8c5e97a-ef56-463f-a92f-e26254f10855-parameters",
        "parameter": [ {
          "name": "subject",
          "valueString": "463dd868-997d-472f-962c-96383fd2a5c4"
        } ]
      } ],
      "extension": [ {
        "url": "http://hl7.org/fhir/StructureDefinition/cqf-inputParameters",
        "valueReference": {
          "reference": "#e8c5e97a-ef56-463f-a92f-e26254f10855-parameters"
        }
      }, {
        "url": "http://hl7.org/fhir/us/cqfmeasures/StructureDefinition/cqfm-testCaseDescription",
        "valueMarkdown": "Adult, amb enc, BMI low at 18.51, intervention for low BMI performed and condition documented - active"
      } ],
      "modifierExtension": [ {
        "url": "http://hl7.org/fhir/us/cqfmeasures/StructureDefinition/cqfm-isTestCase",
        "valueBoolean": true
      } ],
      "status": "complete",
      "type": "individual",
      "measure": "https://madie.cms.gov/Measure/CMS69FHIRPCSBMIScreenAndFollowUp",
      "period": {
        "start": "2026-01-01",
        "end": "2026-12-31"
      },
      "group": [ {
        "id": "Group_1",
        "population": [ {
          "id": "InitialPopulation_1",
          "code": {
            "coding": [ {
              "system": "http://terminology.hl7.org/CodeSystem/measure-population",
              "code": "initial-population",
              "display": "Initial Population"
            } ]
          },
          "count": 1
        }, {
          "id": "Denominator_1",
          "code": {
            "coding": [ {
              "system": "http://terminology.hl7.org/CodeSystem/measure-population",
              "code": "denominator",
              "display": "Denominator"
            } ]
          },
          "count": 1
        }, {
          "id": "DenominatorExclusion_1",
          "code": {
            "coding": [ {
              "system": "http://terminology.hl7.org/CodeSystem/measure-population",
              "code": "denominator-exclusion",
              "display": "Denominator Exclusion"
            } ]
          },
          "count": 0
        }, {
          "id": "Numerator_1",
          "code": {
            "coding": [ {
              "system": "http://terminology.hl7.org/CodeSystem/measure-population",
              "code": "numerator",
              "display": "Numerator"
            } ]
          },
          "count": 1
        }, {
          "id": "DenominatorException_1",
          "code": {
            "coding": [ {
              "system": "http://terminology.hl7.org/CodeSystem/measure-population",
              "code": "denominator-exception",
              "display": "Denominator Exception"
            } ]
          },
          "count": 0
        } ],
        "measureScore": {
          "value": 1.0
        }
      } ],
      "evaluatedResource": [ {
        "reference": "Patient/463dd868-997d-472f-962c-96383fd2a5c4"
      }, {
        "reference": "Encounter/3a5412c5-ac87-4dbe-9709-76b01fde3a8d"
      }, {
        "reference": "Observation/12f69684-96c5-4451-9e7e-d47f4b306315"
      }, {
        "reference": "Procedure/0124e86c-e31e-46e5-917e-8066f3f846a6"
      }, {
        "reference": "Condition/2931d4f5-7134-4d37-a76d-9ec6f3310196"
      }, {
        "reference": "Coverage/479953f8-302b-4b96-bc03-0faf6df98229"
      }, {
        "reference": "Organization/746af0e5-681b-4290-9992-7e05eb82a760"
      } ]
    },
    "request": {
      "method": "PUT",
      "url": "MeasureReport/68eac9ef-57db-4572-a5db-856aab5fda58"
    }
  } ]
}