{
  "resourceType": "Bundle",
  "id": "Patient-7-DENEXPass-HospiceProcDurMP",
  "type": "transaction",
  "entry": [ {
    "fullUrl": "https://madie.cms.gov/Patient/4a1c85c3-e97c-4644-b6a1-2475aa1c27e2",
    "resource": {
      "resourceType": "Patient",
      "id": "4a1c85c3-e97c-4644-b6a1-2475aa1c27e2",
      "meta": {
        "profile": [ "http://hl7.org/fhir/us/qicore/StructureDefinition/qicore-patient" ]
      },
      "extension": [ {
        "url": "http://hl7.org/fhir/us/core/StructureDefinition/us-core-race",
        "extension": [ {
          "url": "ombCategory",
          "valueCoding": {
            "system": "urn:oid:2.16.840.1.113883.6.238",
            "code": "2028-9",
            "display": "Asian"
          }
        }, {
          "url": "text",
          "valueString": "Asian"
        } ]
      }, {
        "url": "http://hl7.org/fhir/us/core/StructureDefinition/us-core-ethnicity",
        "extension": [ {
          "url": "ombCategory",
          "valueCoding": {
            "system": "urn:oid:2.16.840.1.113883.6.238",
            "code": "2135-2",
            "display": "Hispanic or Latino"
          }
        }, {
          "url": "text",
          "valueString": "Hispanic or Latino"
        } ]
      } ],
      "identifier": [ {
        "system": "http://hospital.smarthealthit.org",
        "value": "999999995"
      } ],
      "name": [ {
        "family": "Bertha",
        "given": [ "Betty" ]
      } ],
      "gender": "female",
      "birthDate": "1961-01-01"
    },
    "request": {
      "method": "PUT",
      "url": "Patient/4a1c85c3-e97c-4644-b6a1-2475aa1c27e2"
    }
  }, {
    "fullUrl": "https://madie.cms.gov/Encounter/78c4d8cd-133f-4d24-9d83-bdad3fe83474",
    "resource": {
      "resourceType": "Encounter",
      "id": "78c4d8cd-133f-4d24-9d83-bdad3fe83474",
      "meta": {
        "profile": [ "http://hl7.org/fhir/us/qicore/StructureDefinition/qicore-encounter" ]
      },
      "status": "finished",
      "class": {
        "system": "http://terminology.hl7.org/CodeSystem/v3-ActCode",
        "code": "AMB",
        "display": "ambulatory"
      },
      "type": [ {
        "coding": [ {
          "system": "http://snomed.info/sct",
          "code": "78831002",
          "display": "Comprehensive eye examination (procedure)"
        } ]
      } ],
      "subject": {
        "reference": "Patient/4a1c85c3-e97c-4644-b6a1-2475aa1c27e2"
      },
      "period": {
        "start": "2026-01-01T00:00:00.000+00:00",
        "end": "2026-01-01T00:15:00.000+00:00"
      }
    },
    "request": {
      "method": "PUT",
      "url": "Encounter/78c4d8cd-133f-4d24-9d83-bdad3fe83474"
    }
  }, {
    "fullUrl": "https://madie.cms.gov/Procedure/3d82b7d7-33aa-476a-87e9-41d272072208",
    "resource": {
      "resourceType": "Procedure",
      "id": "3d82b7d7-33aa-476a-87e9-41d272072208",
      "meta": {
        "profile": [ "http://hl7.org/fhir/us/qicore/StructureDefinition/qicore-procedure" ]
      },
      "extension": [ {
        "url": "http://hl7.org/fhir/us/qicore/StructureDefinition/qicore-recorded",
        "valueDateTime": "2026-12-31T00:00:00.000+00:00"
      } ],
      "status": "completed",
      "code": {
        "coding": [ {
          "system": "http://snomed.info/sct",
          "code": "385763009",
          "display": "Hospice care management (procedure)"
        } ]
      },
      "subject": {
        "reference": "Patient/4a1c85c3-e97c-4644-b6a1-2475aa1c27e2"
      },
      "performedPeriod": {
        "start": "2026-12-31T00:00:00.000+00:00",
        "end": "2026-12-31T23:59:59.000+00:00"
      }
    },
    "request": {
      "method": "PUT",
      "url": "Procedure/3d82b7d7-33aa-476a-87e9-41d272072208"
    }
  }, {
    "fullUrl": "https://madie.cms.gov/MeasureReport/533a90ff-c0ab-4df1-aa04-3440eb1f1346",
    "resource": {
      "resourceType": "MeasureReport",
      "id": "533a90ff-c0ab-4df1-aa04-3440eb1f1346",
      "meta": {
        "profile": [ "http://hl7.org/fhir/us/cqfmeasures/StructureDefinition/test-case-cqfm" ]
      },
      "contained": [ {
        "resourceType": "Parameters",
        "id": "469a4e2e-cecf-43d4-975d-b7b47de334c0-parameters",
        "parameter": [ {
          "name": "subject",
          "valueString": "4a1c85c3-e97c-4644-b6a1-2475aa1c27e2"
        } ]
      } ],
      "extension": [ {
        "url": "http://hl7.org/fhir/StructureDefinition/cqf-inputParameters",
        "valueReference": {
          "reference": "#469a4e2e-cecf-43d4-975d-b7b47de334c0-parameters"
        }
      }, {
        "url": "http://hl7.org/fhir/us/cqfmeasures/StructureDefinition/cqfm-testCaseDescription",
        "valueMarkdown": "Patient with a hospice procedure during the MP."
      } ],
      "modifierExtension": [ {
        "url": "http://hl7.org/fhir/us/cqfmeasures/StructureDefinition/cqfm-isTestCase",
        "valueBoolean": true
      } ],
      "status": "complete",
      "type": "individual",
      "measure": "https://madie.cms.gov/Measure/CMS139FHIRFallsScreeningForFutureFallRisk",
      "period": {
        "start": "2026-01-01",
        "end": "2026-12-31"
      },
      "group": [ {
        "id": "Group_1",
        "population": [ {
          "id": "InitialPopulation_1",
          "code": {
            "coding": [ {
              "system": "http://terminology.hl7.org/CodeSystem/measure-population",
              "code": "initial-population",
              "display": "Initial Population"
            } ]
          },
          "count": 1
        }, {
          "id": "Denominator_1",
          "code": {
            "coding": [ {
              "system": "http://terminology.hl7.org/CodeSystem/measure-population",
              "code": "denominator",
              "display": "Denominator"
            } ]
          },
          "count": 1
        }, {
          "id": "DenominatorExclusion_1",
          "code": {
            "coding": [ {
              "system": "http://terminology.hl7.org/CodeSystem/measure-population",
              "code": "denominator-exclusion",
              "display": "Denominator Exclusion"
            } ]
          },
          "count": 1
        }, {
          "id": "Numerator_1",
          "code": {
            "coding": [ {
              "system": "http://terminology.hl7.org/CodeSystem/measure-population",
              "code": "numerator",
              "display": "Numerator"
            } ]
          },
          "count": 0
        } ],
        "measureScore": {
          "value": 1.0
        }
      } ],
      "evaluatedResource": [ {
        "reference": "Patient/4a1c85c3-e97c-4644-b6a1-2475aa1c27e2"
      }, {
        "reference": "Encounter/78c4d8cd-133f-4d24-9d83-bdad3fe83474"
      }, {
        "reference": "Procedure/3d82b7d7-33aa-476a-87e9-41d272072208"
      } ]
    },
    "request": {
      "method": "PUT",
      "url": "MeasureReport/533a90ff-c0ab-4df1-aa04-3440eb1f1346"
    }
  } ]
}