{
  "resourceType": "Bundle",
  "id": "62df25800056b6e23ec675a1",
  "type": "transaction",
  "entry": [ {
    "fullUrl": "https://madie.cms.gov/Patient/27849d59-3cef-40bf-8338-a6ec7c0bcf81",
    "resource": {
      "resourceType": "Patient",
      "id": "27849d59-3cef-40bf-8338-a6ec7c0bcf81",
      "meta": {
        "profile": [ "http://hl7.org/fhir/us/qicore/StructureDefinition/qicore-patient" ]
      },
      "extension": [ {
        "url": "http://hl7.org/fhir/us/core/StructureDefinition/us-core-race",
        "extension": [ {
          "url": "ombCategory",
          "valueCoding": {
            "system": "urn:oid:2.16.840.1.113883.6.238",
            "code": "2106-3",
            "display": "White",
            "userSelected": true
          }
        }, {
          "url": "text",
          "valueString": "White"
        } ]
      }, {
        "url": "http://hl7.org/fhir/us/core/StructureDefinition/us-core-ethnicity",
        "extension": [ {
          "url": "ombCategory",
          "valueCoding": {
            "system": "urn:oid:2.16.840.1.113883.6.238",
            "code": "2186-5",
            "display": "Not Hispanic or Latino",
            "userSelected": true
          }
        }, {
          "url": "text",
          "valueString": "Not Hispanic or Latino"
        } ]
      } ],
      "identifier": [ {
        "type": {
          "coding": [ {
            "system": "http://terminology.hl7.org/CodeSystem/v2-0203",
            "code": "MR"
          } ]
        },
        "system": "https://bonnie-fhir.healthit.gov/",
        "value": "62df25800056b6e23ec675a1"
      } ],
      "name": [ {
        "family": "NUMERPass",
        "given": [ "LowBMIAndInterventionOrderedMedication" ]
      } ],
      "gender": "male",
      "birthDate": "1957-11-07"
    },
    "request": {
      "method": "PUT",
      "url": "Patient/27849d59-3cef-40bf-8338-a6ec7c0bcf81"
    }
  }, {
    "fullUrl": "https://madie.cms.gov/Encounter/00e13bbe-06f3-4b9f-81c6-7e97d10d02ef",
    "resource": {
      "resourceType": "Encounter",
      "id": "00e13bbe-06f3-4b9f-81c6-7e97d10d02ef",
      "meta": {
        "profile": [ "http://hl7.org/fhir/us/qicore/StructureDefinition/qicore-encounter" ]
      },
      "status": "finished",
      "class": {
        "system": "http://terminology.hl7.org/CodeSystem/v3-ActCode",
        "code": "AMB",
        "display": "ambulatory"
      },
      "type": [ {
        "coding": [ {
          "system": "http://snomed.info/sct",
          "version": "2022-03",
          "code": "10197000",
          "display": "Psychiatric interview and evaluation (procedure)",
          "userSelected": true
        } ]
      } ],
      "subject": {
        "reference": "Patient/27849d59-3cef-40bf-8338-a6ec7c0bcf81"
      },
      "period": {
        "start": "2026-12-31T23:30:00.000+00:00",
        "end": "2026-12-31T23:59:00.000+00:00"
      }
    },
    "request": {
      "method": "PUT",
      "url": "Encounter/00e13bbe-06f3-4b9f-81c6-7e97d10d02ef"
    }
  }, {
    "fullUrl": "https://madie.cms.gov/Observation/4dcd44fa-c1ac-458c-9e10-9cda23834287",
    "resource": {
      "resourceType": "Observation",
      "id": "4dcd44fa-c1ac-458c-9e10-9cda23834287",
      "meta": {
        "profile": [ "http://hl7.org/fhir/us/core/StructureDefinition/us-core-bmi" ]
      },
      "status": "final",
      "category": [ {
        "coding": [ {
          "system": "http://terminology.hl7.org/CodeSystem/observation-category",
          "code": "vital-signs",
          "display": "Vital Signs"
        } ]
      } ],
      "code": {
        "coding": [ {
          "system": "http://loinc.org",
          "code": "39156-5",
          "display": "Body mass index (BMI) [Ratio]",
          "userSelected": true
        } ]
      },
      "subject": {
        "reference": "Patient/27849d59-3cef-40bf-8338-a6ec7c0bcf81"
      },
      "effectiveDateTime": "2026-12-31T23:59:00.000+00:00",
      "valueQuantity": {
        "value": 18.4,
        "unit": "kg/m2",
        "system": "http://unitsofmeasure.org",
        "code": "kg/m2"
      }
    },
    "request": {
      "method": "PUT",
      "url": "Observation/4dcd44fa-c1ac-458c-9e10-9cda23834287"
    }
  }, {
    "fullUrl": "https://madie.cms.gov/MedicationRequest/6e812dc5-5993-4217-a536-6a34664183d5",
    "resource": {
      "resourceType": "MedicationRequest",
      "id": "6e812dc5-5993-4217-a536-6a34664183d5",
      "meta": {
        "profile": [ "http://hl7.org/fhir/us/qicore/StructureDefinition/qicore-medicationrequest" ]
      },
      "status": "active",
      "intent": "order",
      "medicationCodeableConcept": {
        "coding": [ {
          "system": "http://www.nlm.nih.gov/research/umls/rxnorm",
          "code": "1928948",
          "display": "dronabinol 5 MG/ML Oral Solution",
          "userSelected": true
        } ]
      },
      "subject": {
        "reference": "Patient/27849d59-3cef-40bf-8338-a6ec7c0bcf81"
      },
      "authoredOn": "2026-12-31T23:59:00.000+00:00",
      "requester": {
        "reference": "Practitioner/f007",
        "display": "Patrick Pump"
      },
      "reasonCode": [ {
        "coding": [ {
          "system": "http://hl7.org/fhir/sid/icd-10-cm",
          "code": "R63.6",
          "display": "Underweight",
          "userSelected": true
        } ]
      } ]
    },
    "request": {
      "method": "PUT",
      "url": "MedicationRequest/6e812dc5-5993-4217-a536-6a34664183d5"
    }
  }, {
    "fullUrl": "https://madie.cms.gov/Coverage/af06c419-c9de-40c4-a92c-e99b73123411",
    "resource": {
      "resourceType": "Coverage",
      "id": "af06c419-c9de-40c4-a92c-e99b73123411",
      "meta": {
        "profile": [ "http://hl7.org/fhir/us/qicore/StructureDefinition/qicore-coverage" ]
      },
      "status": "active",
      "beneficiary": {
        "reference": "Patient/27849d59-3cef-40bf-8338-a6ec7c0bcf81"
      },
      "payor": [ {
        "reference": "Organization/4d533b8d-48e2-4078-97b1-3a710b178de8"
      } ]
    },
    "request": {
      "method": "PUT",
      "url": "Coverage/af06c419-c9de-40c4-a92c-e99b73123411"
    }
  }, {
    "fullUrl": "https://madie.cms.gov/Organization/4d533b8d-48e2-4078-97b1-3a710b178de8",
    "resource": {
      "resourceType": "Organization",
      "id": "4d533b8d-48e2-4078-97b1-3a710b178de8",
      "meta": {
        "profile": [ "http://hl7.org/fhir/us/qicore/StructureDefinition/qicore-organization" ]
      },
      "identifier": [ {
        "use": "temp",
        "system": "urn:oid:2.16.840.1.113883.4.4",
        "value": "21-3259825"
      } ],
      "active": true,
      "type": [ {
        "coding": [ {
          "system": "http://terminology.hl7.org/CodeSystem/organization-type",
          "code": "pay",
          "display": "Payer"
        } ]
      } ],
      "name": "Blue Cross Blue Shield of Texas",
      "telecom": [ {
        "system": "phone",
        "value": "(+1) 972-766-6900"
      } ],
      "address": [ {
        "use": "billing",
        "type": "postal",
        "line": [ "P.O. Box 660044" ],
        "city": "Dallas",
        "state": "TX",
        "postalCode": "75266-0044",
        "country": "USA"
      } ]
    },
    "request": {
      "method": "PUT",
      "url": "Organization/4d533b8d-48e2-4078-97b1-3a710b178de8"
    }
  }, {
    "fullUrl": "https://madie.cms.gov/MeasureReport/6278b229-31b2-459d-8b33-c809d445a1f8",
    "resource": {
      "resourceType": "MeasureReport",
      "id": "6278b229-31b2-459d-8b33-c809d445a1f8",
      "meta": {
        "profile": [ "http://hl7.org/fhir/us/cqfmeasures/StructureDefinition/test-case-cqfm" ]
      },
      "contained": [ {
        "resourceType": "Parameters",
        "id": "cc6554a2-b03f-4575-895a-b3aae228be12-parameters",
        "parameter": [ {
          "name": "subject",
          "valueString": "27849d59-3cef-40bf-8338-a6ec7c0bcf81"
        } ]
      } ],
      "extension": [ {
        "url": "http://hl7.org/fhir/StructureDefinition/cqf-inputParameters",
        "valueReference": {
          "reference": "#cc6554a2-b03f-4575-895a-b3aae228be12-parameters"
        }
      }, {
        "url": "http://hl7.org/fhir/us/cqfmeasures/StructureDefinition/cqfm-testCaseDescription",
        "valueMarkdown": "Amb enc last 30 minutes of the last day of MP Low BMI at 18.4 kg/m2 with intervention ordered - medications, reason code"
      } ],
      "modifierExtension": [ {
        "url": "http://hl7.org/fhir/us/cqfmeasures/StructureDefinition/cqfm-isTestCase",
        "valueBoolean": true
      } ],
      "status": "complete",
      "type": "individual",
      "measure": "https://madie.cms.gov/Measure/CMS69FHIRPCSBMIScreenAndFollowUp",
      "period": {
        "start": "2026-01-01",
        "end": "2026-12-31"
      },
      "group": [ {
        "id": "Group_1",
        "population": [ {
          "id": "InitialPopulation_1",
          "code": {
            "coding": [ {
              "system": "http://terminology.hl7.org/CodeSystem/measure-population",
              "code": "initial-population",
              "display": "Initial Population"
            } ]
          },
          "count": 1
        }, {
          "id": "Denominator_1",
          "code": {
            "coding": [ {
              "system": "http://terminology.hl7.org/CodeSystem/measure-population",
              "code": "denominator",
              "display": "Denominator"
            } ]
          },
          "count": 1
        }, {
          "id": "DenominatorExclusion_1",
          "code": {
            "coding": [ {
              "system": "http://terminology.hl7.org/CodeSystem/measure-population",
              "code": "denominator-exclusion",
              "display": "Denominator Exclusion"
            } ]
          },
          "count": 0
        }, {
          "id": "Numerator_1",
          "code": {
            "coding": [ {
              "system": "http://terminology.hl7.org/CodeSystem/measure-population",
              "code": "numerator",
              "display": "Numerator"
            } ]
          },
          "count": 1
        }, {
          "id": "DenominatorException_1",
          "code": {
            "coding": [ {
              "system": "http://terminology.hl7.org/CodeSystem/measure-population",
              "code": "denominator-exception",
              "display": "Denominator Exception"
            } ]
          },
          "count": 0
        } ],
        "measureScore": {
          "value": 1.0
        }
      } ],
      "evaluatedResource": [ {
        "reference": "Patient/27849d59-3cef-40bf-8338-a6ec7c0bcf81"
      }, {
        "reference": "Encounter/00e13bbe-06f3-4b9f-81c6-7e97d10d02ef"
      }, {
        "reference": "Observation/4dcd44fa-c1ac-458c-9e10-9cda23834287"
      }, {
        "reference": "MedicationRequest/6e812dc5-5993-4217-a536-6a34664183d5"
      }, {
        "reference": "Coverage/af06c419-c9de-40c4-a92c-e99b73123411"
      }, {
        "reference": "Organization/4d533b8d-48e2-4078-97b1-3a710b178de8"
      } ]
    },
    "request": {
      "method": "PUT",
      "url": "MeasureReport/6278b229-31b2-459d-8b33-c809d445a1f8"
    }
  } ]
}