{
  "resourceType": "Bundle",
  "id": "62aa5f74c4be4c506d4a5349",
  "type": "transaction",
  "entry": [ {
    "fullUrl": "https://madie.cms.gov/Patient/03f01144-2230-42ab-b81f-594e1c2baa62",
    "resource": {
      "resourceType": "Patient",
      "id": "03f01144-2230-42ab-b81f-594e1c2baa62",
      "meta": {
        "profile": [ "http://hl7.org/fhir/us/qicore/StructureDefinition/qicore-patient" ]
      },
      "extension": [ {
        "url": "http://hl7.org/fhir/us/core/StructureDefinition/us-core-race",
        "extension": [ {
          "url": "ombCategory",
          "valueCoding": {
            "system": "urn:oid:2.16.840.1.113883.6.238",
            "code": "2028-9",
            "display": "Asian",
            "userSelected": true
          }
        }, {
          "url": "text",
          "valueString": "Asian"
        } ]
      }, {
        "url": "http://hl7.org/fhir/us/core/StructureDefinition/us-core-ethnicity",
        "extension": [ {
          "url": "ombCategory",
          "valueCoding": {
            "system": "urn:oid:2.16.840.1.113883.6.238",
            "code": "2186-5",
            "display": "Not Hispanic or Latino",
            "userSelected": true
          }
        }, {
          "url": "text",
          "valueString": "Not Hispanic or Latino"
        } ]
      }, {
        "url": "http://hl7.org/fhir/us/core/StructureDefinition/us-core-sex",
        "valueCode": "248152002"
      } ],
      "identifier": [ {
        "type": {
          "coding": [ {
            "system": "http://terminology.hl7.org/CodeSystem/v2-0203",
            "code": "MR"
          } ]
        },
        "system": "https://bonnie-fhir.healthit.gov/",
        "value": "62aa5f74c4be4c506d4a5349"
      } ],
      "name": [ {
        "family": "DENEXPass",
        "given": [ "PalliativeCareEncounterAfterMP" ]
      } ],
      "gender": "female",
      "birthDate": "2006-01-01"
    },
    "request": {
      "method": "PUT",
      "url": "Patient/03f01144-2230-42ab-b81f-594e1c2baa62"
    }
  }, {
    "fullUrl": "https://madie.cms.gov/Encounter/c1d4a6b3-e337-4d2b-83ab-2f819dd67a2d",
    "resource": {
      "resourceType": "Encounter",
      "id": "c1d4a6b3-e337-4d2b-83ab-2f819dd67a2d",
      "meta": {
        "profile": [ "http://hl7.org/fhir/us/qicore/StructureDefinition/qicore-encounter" ]
      },
      "status": "finished",
      "class": {
        "system": "http://terminology.hl7.org/CodeSystem/v3-ActCode",
        "code": "AMB",
        "display": "ambulatory"
      },
      "type": [ {
        "coding": [ {
          "system": "http://snomed.info/sct",
          "version": "2022-03",
          "code": "10197000",
          "display": "Psychiatric interview and evaluation (procedure)",
          "userSelected": true
        } ]
      } ],
      "subject": {
        "reference": "Patient/03f01144-2230-42ab-b81f-594e1c2baa62"
      },
      "period": {
        "start": "2026-12-31T23:30:00.000+00:00",
        "end": "2026-12-31T23:59:00.000+00:00"
      }
    },
    "request": {
      "method": "PUT",
      "url": "Encounter/c1d4a6b3-e337-4d2b-83ab-2f819dd67a2d"
    }
  }, {
    "fullUrl": "https://madie.cms.gov/Encounter/f52944a2-34d8-410c-a98a-a71eb76dd0cd",
    "resource": {
      "resourceType": "Encounter",
      "id": "f52944a2-34d8-410c-a98a-a71eb76dd0cd",
      "meta": {
        "profile": [ "http://hl7.org/fhir/us/qicore/StructureDefinition/qicore-encounter" ]
      },
      "status": "finished",
      "class": {
        "system": "http://terminology.hl7.org/CodeSystem/v3-ActCode",
        "code": "AMB",
        "display": "ambulatory"
      },
      "type": [ {
        "coding": [ {
          "system": "http://snomed.info/sct",
          "version": "2022-03",
          "code": "305284002",
          "display": "Admission by palliative care physician (procedure)",
          "userSelected": true
        } ]
      } ],
      "subject": {
        "reference": "Patient/03f01144-2230-42ab-b81f-594e1c2baa62"
      },
      "period": {
        "start": "2027-01-01T00:30:00.000+00:00",
        "end": "2027-01-01T00:59:00.000+00:00"
      }
    },
    "request": {
      "method": "PUT",
      "url": "Encounter/f52944a2-34d8-410c-a98a-a71eb76dd0cd"
    }
  }, {
    "fullUrl": "https://madie.cms.gov/Coverage/9f6ac71c-6f3d-4dde-ad40-33fb51f349c6",
    "resource": {
      "resourceType": "Coverage",
      "id": "9f6ac71c-6f3d-4dde-ad40-33fb51f349c6",
      "meta": {
        "profile": [ "http://hl7.org/fhir/us/qicore/StructureDefinition/qicore-coverage" ]
      },
      "status": "active",
      "beneficiary": {
        "reference": "Patient/03f01144-2230-42ab-b81f-594e1c2baa62"
      },
      "payor": [ {
        "reference": "Organization/811db5fc-f435-486f-82d0-c3b7137d7259"
      } ]
    },
    "request": {
      "method": "PUT",
      "url": "Coverage/9f6ac71c-6f3d-4dde-ad40-33fb51f349c6"
    }
  }, {
    "fullUrl": "https://madie.cms.gov/Organization/811db5fc-f435-486f-82d0-c3b7137d7259",
    "resource": {
      "resourceType": "Organization",
      "id": "811db5fc-f435-486f-82d0-c3b7137d7259",
      "meta": {
        "profile": [ "http://hl7.org/fhir/us/qicore/StructureDefinition/qicore-organization" ]
      },
      "identifier": [ {
        "use": "temp",
        "system": "urn:oid:2.16.840.1.113883.4.4",
        "value": "21-3259825"
      } ],
      "active": true,
      "type": [ {
        "coding": [ {
          "system": "http://terminology.hl7.org/CodeSystem/organization-type",
          "code": "pay",
          "display": "Payer"
        } ]
      } ],
      "name": "Blue Cross Blue Shield of Texas",
      "telecom": [ {
        "system": "phone",
        "value": "(+1) 972-766-6900"
      } ],
      "address": [ {
        "use": "billing",
        "type": "postal",
        "line": [ "P.O. Box 660044" ],
        "city": "Dallas",
        "state": "TX",
        "postalCode": "75266-0044",
        "country": "USA"
      } ]
    },
    "request": {
      "method": "PUT",
      "url": "Organization/811db5fc-f435-486f-82d0-c3b7137d7259"
    }
  }, {
    "fullUrl": "https://madie.cms.gov/MeasureReport/7908a488-8416-47e3-b6ce-e18847a01cb0",
    "resource": {
      "resourceType": "MeasureReport",
      "id": "7908a488-8416-47e3-b6ce-e18847a01cb0",
      "meta": {
        "profile": [ "http://hl7.org/fhir/us/cqfmeasures/StructureDefinition/test-case-cqfm" ]
      },
      "contained": [ {
        "resourceType": "Parameters",
        "id": "23e810cc-9a49-4f37-be86-66a30a310af5-parameters",
        "parameter": [ {
          "name": "subject",
          "valueString": "03f01144-2230-42ab-b81f-594e1c2baa62"
        } ]
      } ],
      "extension": [ {
        "url": "http://hl7.org/fhir/StructureDefinition/cqf-inputParameters",
        "valueReference": {
          "reference": "#23e810cc-9a49-4f37-be86-66a30a310af5-parameters"
        }
      }, {
        "url": "http://hl7.org/fhir/us/cqfmeasures/StructureDefinition/cqfm-testCaseDescription",
        "valueMarkdown": "Palliative care encounter first day of following year, age 18"
      } ],
      "modifierExtension": [ {
        "url": "http://hl7.org/fhir/us/cqfmeasures/StructureDefinition/cqfm-isTestCase",
        "valueBoolean": true
      } ],
      "status": "complete",
      "type": "individual",
      "measure": "https://madie.cms.gov/Measure/CMS69FHIRPCSBMIScreenAndFollowUp",
      "period": {
        "start": "2026-01-01",
        "end": "2026-12-31"
      },
      "group": [ {
        "id": "Group_1",
        "population": [ {
          "id": "InitialPopulation_1",
          "code": {
            "coding": [ {
              "system": "http://terminology.hl7.org/CodeSystem/measure-population",
              "code": "initial-population",
              "display": "Initial Population"
            } ]
          },
          "count": 1
        }, {
          "id": "Denominator_1",
          "code": {
            "coding": [ {
              "system": "http://terminology.hl7.org/CodeSystem/measure-population",
              "code": "denominator",
              "display": "Denominator"
            } ]
          },
          "count": 1
        }, {
          "id": "DenominatorExclusion_1",
          "code": {
            "coding": [ {
              "system": "http://terminology.hl7.org/CodeSystem/measure-population",
              "code": "denominator-exclusion",
              "display": "Denominator Exclusion"
            } ]
          },
          "count": 0
        }, {
          "id": "Numerator_1",
          "code": {
            "coding": [ {
              "system": "http://terminology.hl7.org/CodeSystem/measure-population",
              "code": "numerator",
              "display": "Numerator"
            } ]
          },
          "count": 0
        }, {
          "id": "DenominatorException_1",
          "code": {
            "coding": [ {
              "system": "http://terminology.hl7.org/CodeSystem/measure-population",
              "code": "denominator-exception",
              "display": "Denominator Exception"
            } ]
          },
          "count": 0
        } ],
        "measureScore": {
          "value": 1.0
        }
      } ],
      "evaluatedResource": [ {
        "reference": "Patient/03f01144-2230-42ab-b81f-594e1c2baa62"
      }, {
        "reference": "Encounter/c1d4a6b3-e337-4d2b-83ab-2f819dd67a2d"
      }, {
        "reference": "Encounter/f52944a2-34d8-410c-a98a-a71eb76dd0cd"
      }, {
        "reference": "Coverage/9f6ac71c-6f3d-4dde-ad40-33fb51f349c6"
      }, {
        "reference": "Organization/811db5fc-f435-486f-82d0-c3b7137d7259"
      } ]
    },
    "request": {
      "method": "PUT",
      "url": "MeasureReport/7908a488-8416-47e3-b6ce-e18847a01cb0"
    }
  } ]
}