{
  "resourceType": "Bundle",
  "id": "610965b998086b538055c15b",
  "type": "transaction",
  "entry": [ {
    "fullUrl": "https://madie.cms.gov/Patient/8b1bcbaa-01df-486d-b243-9399e7515074",
    "resource": {
      "resourceType": "Patient",
      "id": "8b1bcbaa-01df-486d-b243-9399e7515074",
      "meta": {
        "profile": [ "http://hl7.org/fhir/us/qicore/StructureDefinition/qicore-patient" ]
      },
      "text": {
        "status": "generated",
        "div": "<div xmlns=\"http://www.w3.org/1999/xhtml\"><div class=\"hapiHeaderText\">TwoHIVDxBothInvalidTiming <b>DENEXFAIL </b></div><table class=\"hapiPropertyTable\"><tbody><tr><td>Identifier</td><td>9c54a4dd540c4bea149b36532d75fcb36030130b66a16274ae97dc73d2d880c3</td></tr><tr><td>Date of birth</td><td><span>31 July 1992</span></td></tr></tbody></table></div>"
      },
      "extension": [ {
        "url": "http://hl7.org/fhir/us/core/StructureDefinition/us-core-race",
        "extension": [ {
          "url": "ombCategory",
          "valueCoding": {
            "system": "urn:oid:2.16.840.1.113883.6.238",
            "code": "2106-3",
            "display": "White",
            "userSelected": true
          }
        }, {
          "url": "text",
          "valueString": "White"
        } ]
      }, {
        "url": "http://hl7.org/fhir/us/core/StructureDefinition/us-core-ethnicity",
        "extension": [ {
          "url": "ombCategory",
          "valueCoding": {
            "system": "urn:oid:2.16.840.1.113883.6.238",
            "code": "2135-2",
            "display": "Hispanic or Latino",
            "userSelected": true
          }
        }, {
          "url": "text",
          "valueString": "Hispanic or Latino"
        } ]
      } ],
      "identifier": [ {
        "type": {
          "coding": [ {
            "system": "http://terminology.hl7.org/CodeSystem/v2-0203",
            "code": "MR"
          } ]
        },
        "system": "https://bonnie-fhir.healthit.gov/",
        "value": "610965b998086b538055c15b"
      } ],
      "active": true,
      "name": [ {
        "use": "usual",
        "family": "DENEXFail",
        "given": [ "TwoHIVDxBothInvalidTiming" ]
      } ],
      "gender": "male",
      "birthDate": "1994-07-31"
    },
    "request": {
      "method": "PUT",
      "url": "Patient/8b1bcbaa-01df-486d-b243-9399e7515074"
    }
  }, {
    "fullUrl": "https://madie.cms.gov/Condition/b0a787b6-ebf0-42c4-abb4-fa60ce895aff",
    "resource": {
      "resourceType": "Condition",
      "id": "b0a787b6-ebf0-42c4-abb4-fa60ce895aff",
      "meta": {
        "profile": [ "http://hl7.org/fhir/us/qicore/StructureDefinition/qicore-condition-encounter-diagnosis" ]
      },
      "clinicalStatus": {
        "coding": [ {
          "system": "http://terminology.hl7.org/CodeSystem/condition-clinical",
          "code": "active",
          "display": "Active",
          "userSelected": true
        } ]
      },
      "category": [ {
        "coding": [ {
          "system": "http://terminology.hl7.org/CodeSystem/condition-category",
          "code": "encounter-diagnosis",
          "display": "Encounter Diagnosis",
          "userSelected": true
        } ]
      } ],
      "code": {
        "coding": [ {
          "system": "http://hl7.org/fhir/sid/icd-9-cm",
          "code": "042"
        } ]
      },
      "subject": {
        "reference": "Patient/8b1bcbaa-01df-486d-b243-9399e7515074"
      },
      "recordedDate": "2013-10-24T08:00:00+00:00"
    },
    "request": {
      "method": "PUT",
      "url": "Condition/b0a787b6-ebf0-42c4-abb4-fa60ce895aff"
    }
  }, {
    "fullUrl": "https://madie.cms.gov/Condition/dc79408e-806f-4941-97a0-16907ac83a75",
    "resource": {
      "resourceType": "Condition",
      "id": "dc79408e-806f-4941-97a0-16907ac83a75",
      "meta": {
        "profile": [ "http://hl7.org/fhir/us/qicore/StructureDefinition/qicore-condition-encounter-diagnosis" ]
      },
      "clinicalStatus": {
        "coding": [ {
          "system": "http://terminology.hl7.org/CodeSystem/condition-clinical",
          "code": "active",
          "display": "active",
          "userSelected": true
        } ]
      },
      "category": [ {
        "coding": [ {
          "system": "http://terminology.hl7.org/CodeSystem/condition-category",
          "code": "encounter-diagnosis",
          "display": "Encounter Diagnosis",
          "userSelected": true
        } ]
      } ],
      "code": {
        "coding": [ {
          "system": "http://hl7.org/fhir/sid/icd-9-cm",
          "code": "042"
        } ]
      },
      "subject": {
        "reference": "Patient/8b1bcbaa-01df-486d-b243-9399e7515074"
      },
      "onsetDateTime": "2026-05-10T08:00:00+00:00"
    },
    "request": {
      "method": "PUT",
      "url": "Condition/dc79408e-806f-4941-97a0-16907ac83a75"
    }
  }, {
    "fullUrl": "https://madie.cms.gov/Encounter/b63564a2-7b86-4526-b2ed-49649d9c54cf",
    "resource": {
      "resourceType": "Encounter",
      "id": "b63564a2-7b86-4526-b2ed-49649d9c54cf",
      "meta": {
        "profile": [ "http://hl7.org/fhir/us/qicore/StructureDefinition/qicore-encounter" ]
      },
      "status": "finished",
      "class": {
        "system": "http://terminology.hl7.org/CodeSystem/v3-ActCode",
        "code": "AMB",
        "display": "ambulatory",
        "userSelected": true
      },
      "type": [ {
        "coding": [ {
          "system": "http://www.ama-assn.org/go/cpt",
          "code": "99395"
        } ]
      } ],
      "subject": {
        "reference": "Patient/8b1bcbaa-01df-486d-b243-9399e7515074"
      },
      "period": {
        "start": "2026-10-24T08:00:00+00:00",
        "end": "2026-10-24T08:30:00+00:00"
      }
    },
    "request": {
      "method": "PUT",
      "url": "Encounter/b63564a2-7b86-4526-b2ed-49649d9c54cf"
    }
  }, {
    "fullUrl": "https://madie.cms.gov/MeasureReport/2120613c-ec61-4892-847a-3ca641470996",
    "resource": {
      "resourceType": "MeasureReport",
      "id": "2120613c-ec61-4892-847a-3ca641470996",
      "meta": {
        "profile": [ "http://hl7.org/fhir/us/cqfmeasures/StructureDefinition/test-case-cqfm" ]
      },
      "contained": [ {
        "resourceType": "Parameters",
        "id": "798bc276-ba51-4ae9-b424-3671dfec2a46-parameters",
        "parameter": [ {
          "name": "subject",
          "valueString": "8b1bcbaa-01df-486d-b243-9399e7515074"
        } ]
      } ],
      "extension": [ {
        "url": "http://hl7.org/fhir/StructureDefinition/cqf-inputParameters",
        "valueReference": {
          "reference": "#798bc276-ba51-4ae9-b424-3671dfec2a46-parameters"
        }
      }, {
        "url": "http://hl7.org/fhir/us/cqfmeasures/StructureDefinition/cqfm-testCaseDescription",
        "valueMarkdown": "Patient 20 at start of MP, qual encounter during MP, two HIV diagnoses, one authorDatetime before MP, one valid during MP."
      } ],
      "modifierExtension": [ {
        "url": "http://hl7.org/fhir/us/cqfmeasures/StructureDefinition/cqfm-isTestCase",
        "valueBoolean": true
      } ],
      "status": "complete",
      "type": "individual",
      "measure": "https://madie.cms.gov/Measure/CMS349FHIRHIVScreening",
      "period": {
        "start": "2026-01-01",
        "end": "2026-12-31"
      },
      "group": [ {
        "id": "Group_1",
        "population": [ {
          "id": "InitialPopulation_1",
          "code": {
            "coding": [ {
              "system": "http://terminology.hl7.org/CodeSystem/measure-population",
              "code": "initial-population",
              "display": "Initial Population"
            } ]
          },
          "count": 1
        }, {
          "id": "Denominator_1",
          "code": {
            "coding": [ {
              "system": "http://terminology.hl7.org/CodeSystem/measure-population",
              "code": "denominator",
              "display": "Denominator"
            } ]
          },
          "count": 1
        }, {
          "id": "DenominatorExclusion_1",
          "code": {
            "coding": [ {
              "system": "http://terminology.hl7.org/CodeSystem/measure-population",
              "code": "denominator-exclusion",
              "display": "Denominator Exclusion"
            } ]
          },
          "count": 0
        }, {
          "id": "Numerator_1",
          "code": {
            "coding": [ {
              "system": "http://terminology.hl7.org/CodeSystem/measure-population",
              "code": "numerator",
              "display": "Numerator"
            } ]
          },
          "count": 0
        }, {
          "id": "DenominatorException_1",
          "code": {
            "coding": [ {
              "system": "http://terminology.hl7.org/CodeSystem/measure-population",
              "code": "denominator-exception",
              "display": "Denominator Exception"
            } ]
          },
          "count": 0
        } ],
        "measureScore": {
          "value": 1.0
        }
      } ],
      "evaluatedResource": [ {
        "reference": "Patient/8b1bcbaa-01df-486d-b243-9399e7515074"
      }, {
        "reference": "Condition/b0a787b6-ebf0-42c4-abb4-fa60ce895aff"
      }, {
        "reference": "Condition/dc79408e-806f-4941-97a0-16907ac83a75"
      }, {
        "reference": "Encounter/b63564a2-7b86-4526-b2ed-49649d9c54cf"
      } ]
    },
    "request": {
      "method": "PUT",
      "url": "MeasureReport/2120613c-ec61-4892-847a-3ca641470996"
    }
  } ]
}