{
  "resourceType": "Bundle",
  "id": "62df28020056b6e23ec675a5",
  "type": "transaction",
  "entry": [ {
    "fullUrl": "https://madie.cms.gov/Patient/1b102c21-830a-41a5-ac27-9aa77ea5adfe",
    "resource": {
      "resourceType": "Patient",
      "id": "1b102c21-830a-41a5-ac27-9aa77ea5adfe",
      "meta": {
        "profile": [ "http://hl7.org/fhir/us/qicore/StructureDefinition/qicore-patient" ]
      },
      "extension": [ {
        "url": "http://hl7.org/fhir/us/core/StructureDefinition/us-core-race",
        "extension": [ {
          "url": "ombCategory",
          "valueCoding": {
            "system": "urn:oid:2.16.840.1.113883.6.238",
            "code": "2028-9",
            "display": "Asian",
            "userSelected": true
          }
        }, {
          "url": "text",
          "valueString": "Asian"
        } ]
      }, {
        "url": "http://hl7.org/fhir/us/core/StructureDefinition/us-core-ethnicity",
        "extension": [ {
          "url": "ombCategory",
          "valueCoding": {
            "system": "urn:oid:2.16.840.1.113883.6.238",
            "code": "2186-5",
            "display": "Not Hispanic or Latino",
            "userSelected": true
          }
        }, {
          "url": "text",
          "valueString": "Not Hispanic or Latino"
        } ]
      } ],
      "identifier": [ {
        "type": {
          "coding": [ {
            "system": "http://terminology.hl7.org/CodeSystem/v2-0203",
            "code": "MR"
          } ]
        },
        "system": "https://bonnie-fhir.healthit.gov/",
        "value": "62df28020056b6e23ec675a5"
      } ],
      "name": [ {
        "family": "DENEXPass",
        "given": [ "HospicePerformedDuringMP" ]
      } ],
      "gender": "female",
      "birthDate": "2001-01-01"
    },
    "request": {
      "method": "PUT",
      "url": "Patient/1b102c21-830a-41a5-ac27-9aa77ea5adfe"
    }
  }, {
    "fullUrl": "https://madie.cms.gov/Encounter/eed4261b-d39e-48c0-b55a-760fc787b456",
    "resource": {
      "resourceType": "Encounter",
      "id": "eed4261b-d39e-48c0-b55a-760fc787b456",
      "meta": {
        "profile": [ "http://hl7.org/fhir/us/qicore/StructureDefinition/qicore-encounter" ]
      },
      "status": "finished",
      "class": {
        "system": "http://terminology.hl7.org/CodeSystem/v3-ActCode",
        "code": "AMB",
        "display": "ambulatory"
      },
      "type": [ {
        "coding": [ {
          "system": "http://snomed.info/sct",
          "version": "2022-03",
          "code": "10197000",
          "display": "Psychiatric interview and evaluation (procedure)",
          "userSelected": true
        } ]
      } ],
      "subject": {
        "reference": "Patient/1b102c21-830a-41a5-ac27-9aa77ea5adfe"
      },
      "period": {
        "start": "2026-01-01T00:00:00.000+00:00",
        "end": "2026-01-01T00:30:00.000+00:00"
      }
    },
    "request": {
      "method": "PUT",
      "url": "Encounter/eed4261b-d39e-48c0-b55a-760fc787b456"
    }
  }, {
    "fullUrl": "https://madie.cms.gov/ServiceRequest/2437f87a-de7c-468d-9b52-d0a4950bd6e4",
    "resource": {
      "resourceType": "ServiceRequest",
      "id": "2437f87a-de7c-468d-9b52-d0a4950bd6e4",
      "meta": {
        "profile": [ "http://hl7.org/fhir/us/qicore/StructureDefinition/qicore-servicerequest" ]
      },
      "status": "active",
      "intent": "order",
      "code": {
        "coding": [ {
          "system": "http://snomed.info/sct",
          "version": "2022-03",
          "code": "385763009",
          "display": "Hospice care (regime/therapy)",
          "userSelected": true
        } ]
      },
      "subject": {
        "reference": "Patient/1b102c21-830a-41a5-ac27-9aa77ea5adfe"
      },
      "authoredOn": "2026-01-01T00:30:00.000+00:00"
    },
    "request": {
      "method": "PUT",
      "url": "ServiceRequest/2437f87a-de7c-468d-9b52-d0a4950bd6e4"
    }
  }, {
    "fullUrl": "https://madie.cms.gov/Procedure/0b2f1270-0bef-4bff-87c2-ae66325fecd9",
    "resource": {
      "resourceType": "Procedure",
      "id": "0b2f1270-0bef-4bff-87c2-ae66325fecd9",
      "meta": {
        "profile": [ "http://hl7.org/fhir/us/qicore/StructureDefinition/qicore-procedure" ]
      },
      "extension": [ {
        "url": "http://hl7.org/fhir/us/qicore/StructureDefinition/qicore-recorded",
        "valueDateTime": "2026-01-01T00:30:00.000+00:00"
      } ],
      "status": "completed",
      "code": {
        "coding": [ {
          "system": "http://snomed.info/sct",
          "version": "2022-03",
          "code": "170935008",
          "display": "Full care by hospice (finding)",
          "userSelected": true
        } ]
      },
      "subject": {
        "reference": "Patient/1b102c21-830a-41a5-ac27-9aa77ea5adfe"
      },
      "performedDateTime": "2026-12-31T20:00:00.000+00:00"
    },
    "request": {
      "method": "PUT",
      "url": "Procedure/0b2f1270-0bef-4bff-87c2-ae66325fecd9"
    }
  }, {
    "fullUrl": "https://madie.cms.gov/Coverage/000e7f88-9db6-48db-b093-aefca8965d2b",
    "resource": {
      "resourceType": "Coverage",
      "id": "000e7f88-9db6-48db-b093-aefca8965d2b",
      "meta": {
        "profile": [ "http://hl7.org/fhir/us/qicore/StructureDefinition/qicore-coverage" ]
      },
      "status": "active",
      "beneficiary": {
        "reference": "Patient/1b102c21-830a-41a5-ac27-9aa77ea5adfe"
      },
      "payor": [ {
        "reference": "Organization/e0a278b3-44f2-40d8-8f02-a59b2178e6bf"
      } ]
    },
    "request": {
      "method": "PUT",
      "url": "Coverage/000e7f88-9db6-48db-b093-aefca8965d2b"
    }
  }, {
    "fullUrl": "https://madie.cms.gov/Organization/e0a278b3-44f2-40d8-8f02-a59b2178e6bf",
    "resource": {
      "resourceType": "Organization",
      "id": "e0a278b3-44f2-40d8-8f02-a59b2178e6bf",
      "meta": {
        "profile": [ "http://hl7.org/fhir/us/qicore/StructureDefinition/qicore-organization" ]
      },
      "identifier": [ {
        "use": "temp",
        "system": "urn:oid:2.16.840.1.113883.4.4",
        "value": "21-3259825"
      } ],
      "active": true,
      "type": [ {
        "coding": [ {
          "system": "http://terminology.hl7.org/CodeSystem/organization-type",
          "code": "pay",
          "display": "Payer"
        } ]
      } ],
      "name": "Blue Cross Blue Shield of Texas",
      "telecom": [ {
        "system": "phone",
        "value": "(+1) 972-766-6900"
      } ],
      "address": [ {
        "use": "billing",
        "type": "postal",
        "line": [ "P.O. Box 660044" ],
        "city": "Dallas",
        "state": "TX",
        "postalCode": "75266-0044",
        "country": "USA"
      } ]
    },
    "request": {
      "method": "PUT",
      "url": "Organization/e0a278b3-44f2-40d8-8f02-a59b2178e6bf"
    }
  }, {
    "fullUrl": "https://madie.cms.gov/MeasureReport/28a33a5b-be8f-4557-8ad4-1008f0263c17",
    "resource": {
      "resourceType": "MeasureReport",
      "id": "28a33a5b-be8f-4557-8ad4-1008f0263c17",
      "meta": {
        "profile": [ "http://hl7.org/fhir/us/cqfmeasures/StructureDefinition/test-case-cqfm" ]
      },
      "contained": [ {
        "resourceType": "Parameters",
        "id": "57bf6d90-7d26-4fb5-b690-1c3c8ad3474e-parameters",
        "parameter": [ {
          "name": "subject",
          "valueString": "1b102c21-830a-41a5-ac27-9aa77ea5adfe"
        } ]
      } ],
      "extension": [ {
        "url": "http://hl7.org/fhir/StructureDefinition/cqf-inputParameters",
        "valueReference": {
          "reference": "#57bf6d90-7d26-4fb5-b690-1c3c8ad3474e-parameters"
        }
      }, {
        "url": "http://hl7.org/fhir/us/cqfmeasures/StructureDefinition/cqfm-testCaseDescription",
        "valueMarkdown": "Enc first day of MP, hospice ordered day of enc., and hospice performed last day of MP. expected to pass the denex d/t has hospice"
      } ],
      "modifierExtension": [ {
        "url": "http://hl7.org/fhir/us/cqfmeasures/StructureDefinition/cqfm-isTestCase",
        "valueBoolean": true
      } ],
      "status": "complete",
      "type": "individual",
      "measure": "https://madie.cms.gov/Measure/CMS69FHIRPCSBMIScreenAndFollowUp",
      "period": {
        "start": "2026-01-01",
        "end": "2026-12-31"
      },
      "group": [ {
        "id": "Group_1",
        "population": [ {
          "id": "InitialPopulation_1",
          "code": {
            "coding": [ {
              "system": "http://terminology.hl7.org/CodeSystem/measure-population",
              "code": "initial-population",
              "display": "Initial Population"
            } ]
          },
          "count": 1
        }, {
          "id": "Denominator_1",
          "code": {
            "coding": [ {
              "system": "http://terminology.hl7.org/CodeSystem/measure-population",
              "code": "denominator",
              "display": "Denominator"
            } ]
          },
          "count": 1
        }, {
          "id": "DenominatorExclusion_1",
          "code": {
            "coding": [ {
              "system": "http://terminology.hl7.org/CodeSystem/measure-population",
              "code": "denominator-exclusion",
              "display": "Denominator Exclusion"
            } ]
          },
          "count": 1
        }, {
          "id": "Numerator_1",
          "code": {
            "coding": [ {
              "system": "http://terminology.hl7.org/CodeSystem/measure-population",
              "code": "numerator",
              "display": "Numerator"
            } ]
          },
          "count": 0
        }, {
          "id": "DenominatorException_1",
          "code": {
            "coding": [ {
              "system": "http://terminology.hl7.org/CodeSystem/measure-population",
              "code": "denominator-exception",
              "display": "Denominator Exception"
            } ]
          },
          "count": 0
        } ],
        "measureScore": {
          "value": 1.0
        }
      } ],
      "evaluatedResource": [ {
        "reference": "Patient/1b102c21-830a-41a5-ac27-9aa77ea5adfe"
      }, {
        "reference": "Encounter/eed4261b-d39e-48c0-b55a-760fc787b456"
      }, {
        "reference": "ServiceRequest/2437f87a-de7c-468d-9b52-d0a4950bd6e4"
      }, {
        "reference": "Procedure/0b2f1270-0bef-4bff-87c2-ae66325fecd9"
      }, {
        "reference": "Coverage/000e7f88-9db6-48db-b093-aefca8965d2b"
      }, {
        "reference": "Organization/e0a278b3-44f2-40d8-8f02-a59b2178e6bf"
      } ]
    },
    "request": {
      "method": "PUT",
      "url": "MeasureReport/28a33a5b-be8f-4557-8ad4-1008f0263c17"
    }
  } ]
}