{
  "resourceType": "Bundle",
  "id": "62fbf0eebf5132f90ee35d42",
  "type": "transaction",
  "entry": [ {
    "fullUrl": "https://madie.cms.gov/Patient/405d4940-7ab2-4d26-b55f-3c27e07eba33",
    "resource": {
      "resourceType": "Patient",
      "id": "405d4940-7ab2-4d26-b55f-3c27e07eba33",
      "meta": {
        "profile": [ "http://hl7.org/fhir/us/qicore/StructureDefinition/qicore-patient" ]
      },
      "extension": [ {
        "url": "http://hl7.org/fhir/us/core/StructureDefinition/us-core-race",
        "extension": [ {
          "url": "ombCategory",
          "valueCoding": {
            "system": "urn:oid:2.16.840.1.113883.6.238",
            "code": "2106-3",
            "display": "White",
            "userSelected": true
          }
        }, {
          "url": "text",
          "valueString": "White"
        } ]
      }, {
        "url": "http://hl7.org/fhir/us/core/StructureDefinition/us-core-ethnicity",
        "extension": [ {
          "url": "ombCategory",
          "valueCoding": {
            "system": "urn:oid:2.16.840.1.113883.6.238",
            "code": "2186-5",
            "display": "Not Hispanic or Latino",
            "userSelected": true
          }
        }, {
          "url": "text",
          "valueString": "Not Hispanic or Latino"
        } ]
      } ],
      "identifier": [ {
        "type": {
          "coding": [ {
            "system": "http://terminology.hl7.org/CodeSystem/v2-0203",
            "code": "MR"
          } ]
        },
        "system": "https://bonnie-fhir.healthit.gov/",
        "value": "62fbf0eebf5132f90ee35d42"
      } ],
      "name": [ {
        "family": "NUMERFail",
        "given": [ "LowBMIAndConditionEndsBeforeInterventionPerformed (1)" ]
      } ],
      "gender": "unknown",
      "birthDate": "1957-11-07"
    },
    "request": {
      "method": "PUT",
      "url": "Patient/405d4940-7ab2-4d26-b55f-3c27e07eba33"
    }
  }, {
    "fullUrl": "https://madie.cms.gov/Encounter/c075548d-f5d3-49c7-908a-ae9aa5e5d1a0",
    "resource": {
      "resourceType": "Encounter",
      "id": "c075548d-f5d3-49c7-908a-ae9aa5e5d1a0",
      "meta": {
        "profile": [ "http://hl7.org/fhir/us/qicore/StructureDefinition/qicore-encounter" ]
      },
      "status": "finished",
      "class": {
        "system": "http://terminology.hl7.org/CodeSystem/v3-ActCode",
        "code": "AMB",
        "display": "ambulatory"
      },
      "type": [ {
        "coding": [ {
          "system": "http://snomed.info/sct",
          "version": "2022-03",
          "code": "10197000",
          "display": "Psychiatric interview and evaluation (procedure)",
          "userSelected": true
        } ]
      } ],
      "subject": {
        "reference": "Patient/405d4940-7ab2-4d26-b55f-3c27e07eba33"
      },
      "period": {
        "start": "2026-12-31T23:30:00.000+00:00",
        "end": "2026-12-31T23:59:00.000+00:00"
      }
    },
    "request": {
      "method": "PUT",
      "url": "Encounter/c075548d-f5d3-49c7-908a-ae9aa5e5d1a0"
    }
  }, {
    "fullUrl": "https://madie.cms.gov/Observation/15638beb-626b-435c-8eee-a6270274ff2f",
    "resource": {
      "resourceType": "Observation",
      "id": "15638beb-626b-435c-8eee-a6270274ff2f",
      "meta": {
        "profile": [ "http://hl7.org/fhir/us/core/StructureDefinition/us-core-bmi" ]
      },
      "status": "final",
      "category": [ {
        "coding": [ {
          "system": "http://terminology.hl7.org/CodeSystem/observation-category",
          "code": "vital-signs",
          "display": "Vital Signs"
        } ]
      } ],
      "code": {
        "coding": [ {
          "system": "http://loinc.org",
          "code": "39156-5",
          "display": "Body mass index (BMI) [Ratio]",
          "userSelected": true
        } ]
      },
      "subject": {
        "reference": "Patient/405d4940-7ab2-4d26-b55f-3c27e07eba33"
      },
      "effectiveDateTime": "2026-12-31T08:05:00.000+00:00",
      "valueQuantity": {
        "value": 15.0,
        "unit": "kg/m2",
        "system": "http://unitsofmeasure.org",
        "code": "kg/m2"
      }
    },
    "request": {
      "method": "PUT",
      "url": "Observation/15638beb-626b-435c-8eee-a6270274ff2f"
    }
  }, {
    "fullUrl": "https://madie.cms.gov/Procedure/f973f91f-91da-4afa-8893-3c78b338ba25",
    "resource": {
      "resourceType": "Procedure",
      "id": "f973f91f-91da-4afa-8893-3c78b338ba25",
      "meta": {
        "profile": [ "http://hl7.org/fhir/us/qicore/StructureDefinition/qicore-procedure" ]
      },
      "extension": [ {
        "url": "http://hl7.org/fhir/us/qicore/StructureDefinition/qicore-recorded",
        "valueDateTime": "2026-12-31T23:59:00.000+00:00"
      } ],
      "status": "completed",
      "code": {
        "coding": [ {
          "system": "http://snomed.info/sct",
          "version": "2022-03",
          "code": "182922004",
          "display": "Dietary regime (regime/therapy)",
          "userSelected": true
        } ]
      },
      "subject": {
        "reference": "Patient/405d4940-7ab2-4d26-b55f-3c27e07eba33"
      },
      "performedDateTime": "2026-12-31T23:59:00.000+00:00"
    },
    "request": {
      "method": "PUT",
      "url": "Procedure/f973f91f-91da-4afa-8893-3c78b338ba25"
    }
  }, {
    "fullUrl": "https://madie.cms.gov/Condition/3a631476-8834-4970-aec2-84406b160e5a",
    "resource": {
      "resourceType": "Condition",
      "id": "3a631476-8834-4970-aec2-84406b160e5a",
      "clinicalStatus": {
        "coding": [ {
          "system": "http://terminology.hl7.org/CodeSystem/condition-clinical",
          "code": "inactive",
          "display": "inActive",
          "userSelected": true
        } ]
      },
      "code": {
        "coding": [ {
          "system": "http://snomed.info/sct",
          "version": "2022-03",
          "code": "248342006",
          "display": "Underweight (finding)",
          "userSelected": true
        } ]
      },
      "subject": {
        "reference": "Patient/405d4940-7ab2-4d26-b55f-3c27e07eba33"
      },
      "abatementPeriod": {
        "start": "2024-01-01T08:00:00.000+00:00",
        "end": "2026-08-15T23:59:00.000+00:00"
      }
    },
    "request": {
      "method": "PUT",
      "url": "Condition/3a631476-8834-4970-aec2-84406b160e5a"
    }
  }, {
    "fullUrl": "https://madie.cms.gov/Coverage/e27880b2-bdf2-435d-a278-041c7ca63d12",
    "resource": {
      "resourceType": "Coverage",
      "id": "e27880b2-bdf2-435d-a278-041c7ca63d12",
      "meta": {
        "profile": [ "http://hl7.org/fhir/us/qicore/StructureDefinition/qicore-coverage" ]
      },
      "status": "active",
      "beneficiary": {
        "reference": "Patient/405d4940-7ab2-4d26-b55f-3c27e07eba33"
      },
      "payor": [ {
        "reference": "Organization/6f201a88-cac2-4bcc-93b1-99fea63e6cb8"
      } ]
    },
    "request": {
      "method": "PUT",
      "url": "Coverage/e27880b2-bdf2-435d-a278-041c7ca63d12"
    }
  }, {
    "fullUrl": "https://madie.cms.gov/Organization/6f201a88-cac2-4bcc-93b1-99fea63e6cb8",
    "resource": {
      "resourceType": "Organization",
      "id": "6f201a88-cac2-4bcc-93b1-99fea63e6cb8",
      "meta": {
        "profile": [ "http://hl7.org/fhir/us/qicore/StructureDefinition/qicore-organization" ]
      },
      "identifier": [ {
        "use": "temp",
        "system": "urn:oid:2.16.840.1.113883.4.4",
        "value": "21-3259825"
      } ],
      "active": true,
      "type": [ {
        "coding": [ {
          "system": "http://terminology.hl7.org/CodeSystem/organization-type",
          "code": "pay",
          "display": "Payer"
        } ]
      } ],
      "name": "Blue Cross Blue Shield of Texas",
      "telecom": [ {
        "system": "phone",
        "value": "(+1) 972-766-6900"
      } ],
      "address": [ {
        "use": "billing",
        "type": "postal",
        "line": [ "P.O. Box 660044" ],
        "city": "Dallas",
        "state": "TX",
        "postalCode": "75266-0044",
        "country": "USA"
      } ]
    },
    "request": {
      "method": "PUT",
      "url": "Organization/6f201a88-cac2-4bcc-93b1-99fea63e6cb8"
    }
  }, {
    "fullUrl": "https://madie.cms.gov/MeasureReport/8a6084c8-4b24-4953-899f-7d24e8a6d8dd",
    "resource": {
      "resourceType": "MeasureReport",
      "id": "8a6084c8-4b24-4953-899f-7d24e8a6d8dd",
      "meta": {
        "profile": [ "http://hl7.org/fhir/us/cqfmeasures/StructureDefinition/test-case-cqfm" ]
      },
      "contained": [ {
        "resourceType": "Parameters",
        "id": "aea2d631-27f5-4ca7-ac04-7c6741a52cdf-parameters",
        "parameter": [ {
          "name": "subject",
          "valueString": "405d4940-7ab2-4d26-b55f-3c27e07eba33"
        } ]
      } ],
      "extension": [ {
        "url": "http://hl7.org/fhir/StructureDefinition/cqf-inputParameters",
        "valueReference": {
          "reference": "#aea2d631-27f5-4ca7-ac04-7c6741a52cdf-parameters"
        }
      }, {
        "url": "http://hl7.org/fhir/us/cqfmeasures/StructureDefinition/cqfm-testCaseDescription",
        "valueMarkdown": "Low BMI with intervention performed using condition but condition prevalence period ends before the intervention is performed. "
      } ],
      "modifierExtension": [ {
        "url": "http://hl7.org/fhir/us/cqfmeasures/StructureDefinition/cqfm-isTestCase",
        "valueBoolean": true
      } ],
      "status": "complete",
      "type": "individual",
      "measure": "https://madie.cms.gov/Measure/CMS69FHIRPCSBMIScreenAndFollowUp",
      "period": {
        "start": "2026-01-01",
        "end": "2026-12-31"
      },
      "group": [ {
        "id": "Group_1",
        "population": [ {
          "id": "InitialPopulation_1",
          "code": {
            "coding": [ {
              "system": "http://terminology.hl7.org/CodeSystem/measure-population",
              "code": "initial-population",
              "display": "Initial Population"
            } ]
          },
          "count": 1
        }, {
          "id": "Denominator_1",
          "code": {
            "coding": [ {
              "system": "http://terminology.hl7.org/CodeSystem/measure-population",
              "code": "denominator",
              "display": "Denominator"
            } ]
          },
          "count": 1
        }, {
          "id": "DenominatorExclusion_1",
          "code": {
            "coding": [ {
              "system": "http://terminology.hl7.org/CodeSystem/measure-population",
              "code": "denominator-exclusion",
              "display": "Denominator Exclusion"
            } ]
          },
          "count": 0
        }, {
          "id": "Numerator_1",
          "code": {
            "coding": [ {
              "system": "http://terminology.hl7.org/CodeSystem/measure-population",
              "code": "numerator",
              "display": "Numerator"
            } ]
          },
          "count": 0
        }, {
          "id": "DenominatorException_1",
          "code": {
            "coding": [ {
              "system": "http://terminology.hl7.org/CodeSystem/measure-population",
              "code": "denominator-exception",
              "display": "Denominator Exception"
            } ]
          },
          "count": 0
        } ],
        "measureScore": {
          "value": 1.0
        }
      } ],
      "evaluatedResource": [ {
        "reference": "Patient/405d4940-7ab2-4d26-b55f-3c27e07eba33"
      }, {
        "reference": "Encounter/c075548d-f5d3-49c7-908a-ae9aa5e5d1a0"
      }, {
        "reference": "Observation/15638beb-626b-435c-8eee-a6270274ff2f"
      }, {
        "reference": "Procedure/f973f91f-91da-4afa-8893-3c78b338ba25"
      }, {
        "reference": "Condition/3a631476-8834-4970-aec2-84406b160e5a"
      }, {
        "reference": "Coverage/e27880b2-bdf2-435d-a278-041c7ca63d12"
      }, {
        "reference": "Organization/6f201a88-cac2-4bcc-93b1-99fea63e6cb8"
      } ]
    },
    "request": {
      "method": "PUT",
      "url": "MeasureReport/8a6084c8-4b24-4953-899f-7d24e8a6d8dd"
    }
  } ]
}