{
  "resourceType": "Bundle",
  "id": "IPFail-18WOffVisEncDec31B4MPDiabetesDxJan1OfMP",
  "type": "transaction",
  "entry": [ {
    "fullUrl": "https://madie.cms.gov/Patient/22ae61cd-1553-4e7a-b9f5-7406cfd6a968",
    "resource": {
      "resourceType": "Patient",
      "id": "22ae61cd-1553-4e7a-b9f5-7406cfd6a968",
      "meta": {
        "profile": [ "http://hl7.org/fhir/us/qicore/StructureDefinition/qicore-patient" ]
      },
      "extension": [ {
        "url": "http://hl7.org/fhir/us/core/StructureDefinition/us-core-race",
        "extension": [ {
          "url": "ombCategory",
          "valueCoding": {
            "system": "urn:oid:2.16.840.1.113883.6.238",
            "code": "2028-9",
            "display": "Asian"
          }
        }, {
          "url": "text",
          "valueString": "Asian"
        } ]
      }, {
        "url": "http://hl7.org/fhir/us/core/StructureDefinition/us-core-ethnicity",
        "extension": [ {
          "url": "ombCategory",
          "valueCoding": {
            "system": "urn:oid:2.16.840.1.113883.6.238",
            "code": "2135-2",
            "display": "Hispanic or Latino"
          }
        }, {
          "url": "text",
          "valueString": "Hispanic or Latino"
        } ]
      } ],
      "identifier": [ {
        "system": "http://hospital.smarthealthit.org",
        "value": "999999995"
      } ],
      "name": [ {
        "family": "Bertha",
        "given": [ "Betty" ]
      } ],
      "gender": "female",
      "birthDate": "2007-12-31"
    },
    "request": {
      "method": "PUT",
      "url": "Patient/22ae61cd-1553-4e7a-b9f5-7406cfd6a968"
    }
  }, {
    "fullUrl": "https://madie.cms.gov/Encounter/547d950d-af11-47de-b494-07c1ae27e3a0",
    "resource": {
      "resourceType": "Encounter",
      "id": "547d950d-af11-47de-b494-07c1ae27e3a0",
      "meta": {
        "profile": [ "http://hl7.org/fhir/us/qicore/StructureDefinition/qicore-encounter" ]
      },
      "status": "finished",
      "class": {
        "system": "http://terminology.hl7.org/CodeSystem/v3-ActCode",
        "code": "AMB",
        "display": "ambulatory"
      },
      "type": [ {
        "coding": [ {
          "system": "http://snomed.info/sct",
          "code": "185463005",
          "display": "Visit out of hours (procedure)"
        } ]
      } ],
      "subject": {
        "reference": "Patient/22ae61cd-1553-4e7a-b9f5-7406cfd6a968"
      },
      "period": {
        "start": "2024-12-31T23:59:59.000+00:00",
        "end": "2024-12-31T23:59:59.000+00:00"
      }
    },
    "request": {
      "method": "PUT",
      "url": "Encounter/547d950d-af11-47de-b494-07c1ae27e3a0"
    }
  }, {
    "fullUrl": "https://madie.cms.gov/Condition/65b418ef-4171-4715-bdac-f483fab24fe9",
    "resource": {
      "resourceType": "Condition",
      "id": "65b418ef-4171-4715-bdac-f483fab24fe9",
      "meta": {
        "profile": [ "http://hl7.org/fhir/us/qicore/StructureDefinition/qicore-condition-encounter-diagnosis" ]
      },
      "clinicalStatus": {
        "coding": [ {
          "system": "http://terminology.hl7.org/CodeSystem/condition-clinical",
          "code": "active"
        } ]
      },
      "category": [ {
        "coding": [ {
          "system": "http://terminology.hl7.org/CodeSystem/condition-category",
          "code": "problem-list-item",
          "display": "Problem List Item"
        } ]
      } ],
      "code": {
        "coding": [ {
          "system": "http://snomed.info/sct",
          "code": "102781000119107",
          "display": "Sensory neuropathy due to type 1 diabetes mellitus (disorder)"
        } ]
      },
      "subject": {
        "reference": "Patient/22ae61cd-1553-4e7a-b9f5-7406cfd6a968"
      },
      "onsetDateTime": "2026-01-01T00:00:00.000+00:00"
    },
    "request": {
      "method": "PUT",
      "url": "Condition/65b418ef-4171-4715-bdac-f483fab24fe9"
    }
  }, {
    "fullUrl": "https://madie.cms.gov/MeasureReport/dab7e97d-d671-418e-975e-9481c31931fe",
    "resource": {
      "resourceType": "MeasureReport",
      "id": "dab7e97d-d671-418e-975e-9481c31931fe",
      "meta": {
        "profile": [ "http://hl7.org/fhir/us/cqfmeasures/StructureDefinition/test-case-cqfm" ]
      },
      "contained": [ {
        "resourceType": "Parameters",
        "id": "ebd3bdda-1338-44ec-8f30-d784538101e3-parameters",
        "parameter": [ {
          "name": "subject",
          "valueString": "22ae61cd-1553-4e7a-b9f5-7406cfd6a968"
        } ]
      } ],
      "extension": [ {
        "url": "http://hl7.org/fhir/StructureDefinition/cqf-inputParameters",
        "valueReference": {
          "reference": "#ebd3bdda-1338-44ec-8f30-d784538101e3-parameters"
        }
      }, {
        "url": "http://hl7.org/fhir/us/cqfmeasures/StructureDefinition/cqfm-testCaseDescription",
        "valueMarkdown": "Patient 18yo w/ an Office Visit Encounter 12/31 before MP & Diabetes Condition ending 1/1 during the MP."
      } ],
      "modifierExtension": [ {
        "url": "http://hl7.org/fhir/us/cqfmeasures/StructureDefinition/cqfm-isTestCase",
        "valueBoolean": true
      } ],
      "status": "complete",
      "type": "individual",
      "measure": "https://madie.cms.gov/Measure/CMS131FHIRDiabetesEyeExam",
      "period": {
        "start": "2026-01-01",
        "end": "2026-12-31"
      },
      "group": [ {
        "id": "Group_1",
        "population": [ {
          "id": "InitialPopulation_1",
          "code": {
            "coding": [ {
              "system": "http://terminology.hl7.org/CodeSystem/measure-population",
              "code": "initial-population",
              "display": "Initial Population"
            } ]
          },
          "count": 0
        }, {
          "id": "Denominator_1",
          "code": {
            "coding": [ {
              "system": "http://terminology.hl7.org/CodeSystem/measure-population",
              "code": "denominator",
              "display": "Denominator"
            } ]
          },
          "count": 0
        }, {
          "id": "DenominatorExclusion_1",
          "code": {
            "coding": [ {
              "system": "http://terminology.hl7.org/CodeSystem/measure-population",
              "code": "denominator-exclusion",
              "display": "Denominator Exclusion"
            } ]
          },
          "count": 0
        }, {
          "id": "Numerator_1",
          "code": {
            "coding": [ {
              "system": "http://terminology.hl7.org/CodeSystem/measure-population",
              "code": "numerator",
              "display": "Numerator"
            } ]
          },
          "count": 0
        } ],
        "measureScore": {
          "value": 1.0
        }
      } ],
      "evaluatedResource": [ {
        "reference": "Patient/22ae61cd-1553-4e7a-b9f5-7406cfd6a968"
      }, {
        "reference": "Encounter/547d950d-af11-47de-b494-07c1ae27e3a0"
      }, {
        "reference": "Condition/65b418ef-4171-4715-bdac-f483fab24fe9"
      } ]
    },
    "request": {
      "method": "PUT",
      "url": "MeasureReport/dab7e97d-d671-418e-975e-9481c31931fe"
    }
  } ]
}