{
  "resourceType": "Bundle",
  "id": "DENEXPass-AbsenceOfCervixConditionDuringMP",
  "type": "transaction",
  "entry": [ {
    "fullUrl": "https://madie.cms.gov/Patient/dd04ce68-da5f-415e-b5e6-9f808a0edb6d",
    "resource": {
      "resourceType": "Patient",
      "id": "dd04ce68-da5f-415e-b5e6-9f808a0edb6d",
      "meta": {
        "profile": [ "http://hl7.org/fhir/us/qicore/StructureDefinition/qicore-patient" ]
      },
      "extension": [ {
        "url": "http://hl7.org/fhir/us/core/StructureDefinition/us-core-race",
        "extension": [ {
          "url": "ombCategory",
          "valueCoding": {
            "system": "urn:oid:2.16.840.1.113883.6.238",
            "code": "2028-9",
            "display": "Asian"
          }
        }, {
          "url": "text",
          "valueString": "Asian"
        } ]
      }, {
        "url": "http://hl7.org/fhir/us/core/StructureDefinition/us-core-ethnicity",
        "extension": [ {
          "url": "ombCategory",
          "valueCoding": {
            "system": "urn:oid:2.16.840.1.113883.6.238",
            "code": "2135-2",
            "display": "Hispanic or Latino"
          }
        }, {
          "url": "text",
          "valueString": "Hispanic or Latino"
        } ]
      } ],
      "identifier": [ {
        "system": "http://hospital.smarthealthit.org",
        "value": "999999995"
      } ],
      "name": [ {
        "family": "Bertha",
        "given": [ "Betty" ]
      } ],
      "gender": "female",
      "birthDate": "2002-12-31"
    },
    "request": {
      "method": "PUT",
      "url": "Patient/dd04ce68-da5f-415e-b5e6-9f808a0edb6d"
    }
  }, {
    "fullUrl": "https://madie.cms.gov/Encounter/30e048b6-62e0-4a34-bea2-912d712e0675",
    "resource": {
      "resourceType": "Encounter",
      "id": "30e048b6-62e0-4a34-bea2-912d712e0675",
      "meta": {
        "profile": [ "http://hl7.org/fhir/us/qicore/StructureDefinition/qicore-encounter" ]
      },
      "status": "finished",
      "class": {
        "system": "http://terminology.hl7.org/CodeSystem/v3-ActCode",
        "code": "AMB",
        "display": "ambulatory"
      },
      "type": [ {
        "coding": [ {
          "system": "http://www.ama-assn.org/go/cpt",
          "code": "99395",
          "display": "Periodic comprehensive preventive medicine reevaluation and management of an individual including an age and gender appropriate history, examination, counseling/anticipatory guidance/risk factor reduction interventions, and the ordering of laboratory/diagnostic procedures, established patient; 18-39 years"
        } ]
      } ],
      "subject": {
        "reference": "Patient/dd04ce68-da5f-415e-b5e6-9f808a0edb6d"
      },
      "period": {
        "start": "2026-01-01T01:00:00.000+00:00",
        "end": "2026-01-01T01:15:00.000+00:00"
      }
    },
    "request": {
      "method": "PUT",
      "url": "Encounter/30e048b6-62e0-4a34-bea2-912d712e0675"
    }
  }, {
    "fullUrl": "https://madie.cms.gov/Condition/3fe03bc0-ab74-4107-891d-4f7f0ad7e0ee",
    "resource": {
      "resourceType": "Condition",
      "id": "3fe03bc0-ab74-4107-891d-4f7f0ad7e0ee",
      "meta": {
        "profile": [ "http://hl7.org/fhir/us/qicore/StructureDefinition/qicore-condition-problems-health-concerns" ]
      },
      "clinicalStatus": {
        "coding": [ {
          "system": "http://terminology.hl7.org/CodeSystem/condition-clinical",
          "code": "active"
        } ]
      },
      "category": [ {
        "coding": [ {
          "system": "http://terminology.hl7.org/CodeSystem/condition-category",
          "code": "problem-list-item",
          "display": "Problem List Item"
        } ]
      } ],
      "code": {
        "coding": [ {
          "system": "http://snomed.info/sct",
          "code": "37687000",
          "display": "Congenital absence of cervix (disorder)"
        } ]
      },
      "subject": {
        "reference": "Patient/dd04ce68-da5f-415e-b5e6-9f808a0edb6d"
      },
      "onsetDateTime": "2026-01-01T23:59:59.000+00:00"
    },
    "request": {
      "method": "PUT",
      "url": "Condition/3fe03bc0-ab74-4107-891d-4f7f0ad7e0ee"
    }
  }, {
    "fullUrl": "https://madie.cms.gov/MeasureReport/f14f20d2-e0c3-40a4-8b91-a7e9e1d052ed",
    "resource": {
      "resourceType": "MeasureReport",
      "id": "f14f20d2-e0c3-40a4-8b91-a7e9e1d052ed",
      "meta": {
        "profile": [ "http://hl7.org/fhir/us/cqfmeasures/StructureDefinition/test-case-cqfm" ]
      },
      "contained": [ {
        "resourceType": "Parameters",
        "id": "a4e743f6-9b4c-42a1-9f61-f7a698ae5913-parameters",
        "parameter": [ {
          "name": "subject",
          "valueString": "dd04ce68-da5f-415e-b5e6-9f808a0edb6d"
        } ]
      } ],
      "extension": [ {
        "url": "http://hl7.org/fhir/StructureDefinition/cqf-inputParameters",
        "valueReference": {
          "reference": "#a4e743f6-9b4c-42a1-9f61-f7a698ae5913-parameters"
        }
      }, {
        "url": "http://hl7.org/fhir/us/cqfmeasures/StructureDefinition/cqfm-testCaseDescription",
        "valueMarkdown": "Absence of Cervix Condition - For meeting 100% coverage"
      } ],
      "modifierExtension": [ {
        "url": "http://hl7.org/fhir/us/cqfmeasures/StructureDefinition/cqfm-isTestCase",
        "valueBoolean": true
      } ],
      "status": "complete",
      "type": "individual",
      "measure": "https://madie.cms.gov/Measure/CMS124FHIRCervicalCancerScreening",
      "period": {
        "start": "2026-01-01",
        "end": "2026-12-31"
      },
      "group": [ {
        "id": "Group_1",
        "population": [ {
          "id": "InitialPopulation_1",
          "code": {
            "coding": [ {
              "system": "http://terminology.hl7.org/CodeSystem/measure-population",
              "code": "initial-population",
              "display": "Initial Population"
            } ]
          },
          "count": 1
        }, {
          "id": "Denominator_1",
          "code": {
            "coding": [ {
              "system": "http://terminology.hl7.org/CodeSystem/measure-population",
              "code": "denominator",
              "display": "Denominator"
            } ]
          },
          "count": 1
        }, {
          "id": "DenominatorExclusion_1",
          "code": {
            "coding": [ {
              "system": "http://terminology.hl7.org/CodeSystem/measure-population",
              "code": "denominator-exclusion",
              "display": "Denominator Exclusion"
            } ]
          },
          "count": 1
        }, {
          "id": "Numerator_1",
          "code": {
            "coding": [ {
              "system": "http://terminology.hl7.org/CodeSystem/measure-population",
              "code": "numerator",
              "display": "Numerator"
            } ]
          },
          "count": 0
        } ],
        "measureScore": {
          "value": 1.0
        }
      } ],
      "evaluatedResource": [ {
        "reference": "Patient/dd04ce68-da5f-415e-b5e6-9f808a0edb6d"
      }, {
        "reference": "Encounter/30e048b6-62e0-4a34-bea2-912d712e0675"
      }, {
        "reference": "Condition/3fe03bc0-ab74-4107-891d-4f7f0ad7e0ee"
      } ]
    },
    "request": {
      "method": "PUT",
      "url": "MeasureReport/f14f20d2-e0c3-40a4-8b91-a7e9e1d052ed"
    }
  } ]
}