{
  "resourceType": "Bundle",
  "id": "DENEXFail-66yoInNursingHomeStatusCancelled",
  "type": "transaction",
  "entry": [ {
    "fullUrl": "https://madie.cms.gov/Patient/9177b3ca-1cd7-404c-93f9-5bc782b9963a",
    "resource": {
      "resourceType": "Patient",
      "id": "9177b3ca-1cd7-404c-93f9-5bc782b9963a",
      "meta": {
        "profile": [ "http://hl7.org/fhir/us/qicore/StructureDefinition/qicore-patient" ]
      },
      "extension": [ {
        "url": "http://hl7.org/fhir/us/core/StructureDefinition/us-core-race",
        "extension": [ {
          "url": "ombCategory",
          "valueCoding": {
            "system": "urn:oid:2.16.840.1.113883.6.238",
            "code": "2028-9",
            "display": "Asian"
          }
        }, {
          "url": "text",
          "valueString": "Asian"
        } ]
      }, {
        "url": "http://hl7.org/fhir/us/core/StructureDefinition/us-core-ethnicity",
        "extension": [ {
          "url": "ombCategory",
          "valueCoding": {
            "system": "urn:oid:2.16.840.1.113883.6.238",
            "code": "2135-2",
            "display": "Hispanic or Latino"
          }
        }, {
          "url": "text",
          "valueString": "Hispanic or Latino"
        } ]
      } ],
      "identifier": [ {
        "system": "http://hospital.smarthealthit.org",
        "value": "999999995"
      } ],
      "name": [ {
        "family": "Bertha",
        "given": [ "Betty" ]
      } ],
      "gender": "female",
      "birthDate": "1959-12-31"
    },
    "request": {
      "method": "PUT",
      "url": "Patient/9177b3ca-1cd7-404c-93f9-5bc782b9963a"
    }
  }, {
    "fullUrl": "https://madie.cms.gov/Encounter/210d720c-8351-4e86-a4e2-ed5c3eb4efab",
    "resource": {
      "resourceType": "Encounter",
      "id": "210d720c-8351-4e86-a4e2-ed5c3eb4efab",
      "meta": {
        "profile": [ "http://hl7.org/fhir/us/qicore/StructureDefinition/qicore-encounter" ]
      },
      "status": "finished",
      "class": {
        "system": "http://terminology.hl7.org/CodeSystem/v3-ActCode",
        "code": "AMB",
        "display": "ambulatory"
      },
      "type": [ {
        "coding": [ {
          "system": "http://snomed.info/sct",
          "code": "185463005",
          "display": "Visit out of hours (procedure)"
        } ]
      } ],
      "subject": {
        "reference": "Patient/9177b3ca-1cd7-404c-93f9-5bc782b9963a"
      },
      "period": {
        "start": "2026-01-01T00:00:00.000+00:00",
        "end": "2026-01-01T00:00:00.000+00:00"
      }
    },
    "request": {
      "method": "PUT",
      "url": "Encounter/210d720c-8351-4e86-a4e2-ed5c3eb4efab"
    }
  }, {
    "fullUrl": "https://madie.cms.gov/Condition/cfdf168a-9103-434f-adeb-9bcf7948969e",
    "resource": {
      "resourceType": "Condition",
      "id": "cfdf168a-9103-434f-adeb-9bcf7948969e",
      "meta": {
        "profile": [ "http://hl7.org/fhir/us/qicore/StructureDefinition/qicore-condition-encounter-diagnosis" ]
      },
      "clinicalStatus": {
        "coding": [ {
          "system": "http://terminology.hl7.org/CodeSystem/condition-clinical",
          "code": "active"
        } ]
      },
      "category": [ {
        "coding": [ {
          "system": "http://terminology.hl7.org/CodeSystem/condition-category",
          "code": "problem-list-item",
          "display": "Problem List Item"
        } ]
      } ],
      "code": {
        "coding": [ {
          "system": "http://snomed.info/sct",
          "code": "102781000119107",
          "display": "Sensory neuropathy due to type 1 diabetes mellitus (disorder)"
        } ]
      },
      "subject": {
        "reference": "Patient/9177b3ca-1cd7-404c-93f9-5bc782b9963a"
      },
      "onsetDateTime": "2026-01-01T00:00:00.000+00:00"
    },
    "request": {
      "method": "PUT",
      "url": "Condition/cfdf168a-9103-434f-adeb-9bcf7948969e"
    }
  }, {
    "fullUrl": "https://madie.cms.gov/Observation/c8b76134-e9fa-43cb-95cc-e1763f7e33b2",
    "resource": {
      "resourceType": "Observation",
      "id": "c8b76134-e9fa-43cb-95cc-e1763f7e33b2",
      "meta": {
        "profile": [ "http://hl7.org/fhir/us/qicore/StructureDefinition/qicore-observation-screening-assessment" ]
      },
      "status": "cancelled",
      "category": [ {
        "coding": [ {
          "system": "http://terminology.hl7.org/CodeSystem/observation-category",
          "code": "survey"
        } ]
      } ],
      "code": {
        "coding": [ {
          "system": "http://loinc.org",
          "code": "71802-3",
          "display": "Housing status"
        } ]
      },
      "subject": {
        "reference": "Patient/9177b3ca-1cd7-404c-93f9-5bc782b9963a"
      },
      "effectivePeriod": {
        "start": "2026-12-31T23:59:59.000+00:00",
        "end": "2026-12-31T23:59:59.000+00:00"
      },
      "valueCodeableConcept": {
        "coding": [ {
          "system": "http://snomed.info/sct",
          "code": "160734000",
          "display": "Lives in a nursing home (finding)"
        } ]
      }
    },
    "request": {
      "method": "PUT",
      "url": "Observation/c8b76134-e9fa-43cb-95cc-e1763f7e33b2"
    }
  }, {
    "fullUrl": "https://madie.cms.gov/MeasureReport/4805ebc6-6709-4018-b4a0-65a694251d71",
    "resource": {
      "resourceType": "MeasureReport",
      "id": "4805ebc6-6709-4018-b4a0-65a694251d71",
      "meta": {
        "profile": [ "http://hl7.org/fhir/us/cqfmeasures/StructureDefinition/test-case-cqfm" ]
      },
      "contained": [ {
        "resourceType": "Parameters",
        "id": "be6ed078-9a3c-461e-b4d4-3f8bc9c0418a-parameters",
        "parameter": [ {
          "name": "subject",
          "valueString": "9177b3ca-1cd7-404c-93f9-5bc782b9963a"
        } ]
      } ],
      "extension": [ {
        "url": "http://hl7.org/fhir/StructureDefinition/cqf-inputParameters",
        "valueReference": {
          "reference": "#be6ed078-9a3c-461e-b4d4-3f8bc9c0418a-parameters"
        }
      }, {
        "url": "http://hl7.org/fhir/us/cqfmeasures/StructureDefinition/cqfm-testCaseDescription",
        "valueMarkdown": "Patient 66yo w/ an Office Visit Encounter 1/1 of the MP, & Diabetes Condition ending 1/1 during the MP, & an Observation AIFrailty Living In Nursing Home that starts on 12/31 of the MP, with a status of cancelled."
      } ],
      "modifierExtension": [ {
        "url": "http://hl7.org/fhir/us/cqfmeasures/StructureDefinition/cqfm-isTestCase",
        "valueBoolean": true
      } ],
      "status": "complete",
      "type": "individual",
      "measure": "https://madie.cms.gov/Measure/CMS131FHIRDiabetesEyeExam",
      "period": {
        "start": "2026-01-01",
        "end": "2026-12-31"
      },
      "group": [ {
        "id": "Group_1",
        "population": [ {
          "id": "InitialPopulation_1",
          "code": {
            "coding": [ {
              "system": "http://terminology.hl7.org/CodeSystem/measure-population",
              "code": "initial-population",
              "display": "Initial Population"
            } ]
          },
          "count": 1
        }, {
          "id": "Denominator_1",
          "code": {
            "coding": [ {
              "system": "http://terminology.hl7.org/CodeSystem/measure-population",
              "code": "denominator",
              "display": "Denominator"
            } ]
          },
          "count": 1
        }, {
          "id": "DenominatorExclusion_1",
          "code": {
            "coding": [ {
              "system": "http://terminology.hl7.org/CodeSystem/measure-population",
              "code": "denominator-exclusion",
              "display": "Denominator Exclusion"
            } ]
          },
          "count": 0
        }, {
          "id": "Numerator_1",
          "code": {
            "coding": [ {
              "system": "http://terminology.hl7.org/CodeSystem/measure-population",
              "code": "numerator",
              "display": "Numerator"
            } ]
          },
          "count": 0
        } ],
        "measureScore": {
          "value": 1.0
        }
      } ],
      "evaluatedResource": [ {
        "reference": "Patient/9177b3ca-1cd7-404c-93f9-5bc782b9963a"
      }, {
        "reference": "Encounter/210d720c-8351-4e86-a4e2-ed5c3eb4efab"
      }, {
        "reference": "Condition/cfdf168a-9103-434f-adeb-9bcf7948969e"
      }, {
        "reference": "Observation/c8b76134-e9fa-43cb-95cc-e1763f7e33b2"
      } ]
    },
    "request": {
      "method": "PUT",
      "url": "MeasureReport/4805ebc6-6709-4018-b4a0-65a694251d71"
    }
  } ]
}