{
  "resourceType": "Bundle",
  "id": "62fbe853bf5132f90ee35d3b",
  "type": "transaction",
  "entry": [
    {
      "fullUrl": "https://madie.cms.gov/Patient/736b5472-4a6f-4278-80d3-373d1c78c4c5",
      "resource": {
        "resourceType": "Patient",
        "id": "736b5472-4a6f-4278-80d3-373d1c78c4c5",
        "meta": {
          "profile": [
            "http://hl7.org/fhir/us/qicore/StructureDefinition/qicore-patient"
          ]
        },
        "extension": [
          {
            "url": "http://hl7.org/fhir/us/core/StructureDefinition/us-core-race",
            "extension": [
              {
                "url": "ombCategory",
                "valueCoding": {
                  "system": "urn:oid:2.16.840.1.113883.6.238",
                  "code": "2028-9",
                  "display": "Asian",
                  "userSelected": true
                }
              },
              {
                "url": "text",
                "valueString": "Asian"
              }
            ]
          },
          {
            "url": "http://hl7.org/fhir/us/core/StructureDefinition/us-core-ethnicity",
            "extension": [
              {
                "url": "ombCategory",
                "valueCoding": {
                  "system": "urn:oid:2.16.840.1.113883.6.238",
                  "code": "2135-2",
                  "display": "Hispanic or Latino",
                  "userSelected": true
                }
              },
              {
                "url": "text",
                "valueString": "Hispanic or Latino"
              }
            ]
          }
        ],
        "identifier": [
          {
            "type": {
              "coding": [
                {
                  "system": "http://terminology.hl7.org/CodeSystem/v2-0203",
                  "code": "MR"
                }
              ]
            },
            "system": "https://bonnie-fhir.healthit.gov/",
            "value": "62fbe853bf5132f90ee35d3b"
          }
        ],
        "name": [
          {
            "family": "DENEXPass",
            "given": ["HospiceObservationAssessment"]
          }
        ],
        "gender": "female",
        "birthDate": "1959-07-04"
      },
      "request": {
        "method": "PUT",
        "url": "Patient/736b5472-4a6f-4278-80d3-373d1c78c4c5"
      }
    },
    {
      "fullUrl": "https://madie.cms.gov/Encounter/5b42b17c-c6e8-4321-9e4b-c5b027b50486",
      "resource": {
        "resourceType": "Encounter",
        "id": "5b42b17c-c6e8-4321-9e4b-c5b027b50486",
        "meta": {
          "profile": [
            "http://hl7.org/fhir/us/qicore/StructureDefinition/qicore-encounter"
          ]
        },
        "status": "finished",
        "class": {
          "system": "http://terminology.hl7.org/CodeSystem/v3-ActCode",
          "code": "AMB",
          "display": "ambulatory"
        },
        "type": [
          {
            "coding": [
              {
                "system": "http://snomed.info/sct",
                "version": "2022-03",
                "code": "10197000",
                "display": "Psychiatric interview and evaluation (procedure)",
                "userSelected": true
              }
            ]
          }
        ],
        "subject": {
          "reference": "Patient/736b5472-4a6f-4278-80d3-373d1c78c4c5"
        },
        "period": {
          "start": "2026-01-01T00:00:00.000+00:00",
          "end": "2026-01-01T00:30:00.000+00:00"
        }
      },
      "request": {
        "method": "PUT",
        "url": "Encounter/5b42b17c-c6e8-4321-9e4b-c5b027b50486"
      }
    },
    {
      "fullUrl": "https://madie.cms.gov/Observation/1a6b47b3-ee45-4599-87ed-92d527c4ea33",
      "resource": {
        "resourceType": "Observation",
        "id": "1a6b47b3-ee45-4599-87ed-92d527c4ea33",
        "meta": {
          "profile": [
            "http://hl7.org/fhir/us/qicore/StructureDefinition/qicore-simple-observation"
          ]
        },
        "status": "final",
        "category": [
          {
            "coding": [
              {
                "system": "http://terminology.hl7.org/CodeSystem/observation-category",
                "code": "procedure",
                "display": "Procedure"
              }
            ]
          }
        ],
        "code": {
          "coding": [
            {
              "system": "http://loinc.org",
              "code": "39156-5",
              "display": "Body mass index (BMI) [Ratio]",
              "userSelected": true
            }
          ]
        },
        "subject": {
          "reference": "Patient/736b5472-4a6f-4278-80d3-373d1c78c4c5"
        },
        "effectiveDateTime": "2026-01-01T00:30:00.000+00:00",
        "valueQuantity": {
          "value": 28.0,
          "unit": "kg/m2",
          "system": "http://unitsofmeasure.org",
          "code": "kg/m2"
        }
      },
      "request": {
        "method": "PUT",
        "url": "Observation/1a6b47b3-ee45-4599-87ed-92d527c4ea33"
      }
    },
    {
      "fullUrl": "https://madie.cms.gov/Procedure/c7b0a546-6d1b-40c9-b907-215d53fb5a37",
      "resource": {
        "resourceType": "Procedure",
        "id": "c7b0a546-6d1b-40c9-b907-215d53fb5a37",
        "meta": {
          "profile": [
            "http://hl7.org/fhir/us/qicore/StructureDefinition/qicore-procedure"
          ]
        },
        "extension": [
          {
            "url": "http://hl7.org/fhir/us/qicore/StructureDefinition/qicore-recorded",
            "valueDateTime": "2026-01-01T00:30:00.000+00:00"
          }
        ],
        "status": "completed",
        "code": {
          "coding": [
            {
              "system": "http://snomed.info/sct",
              "version": "2022-03",
              "code": "182922004",
              "display": "Dietary regime (regime/therapy)",
              "userSelected": true
            }
          ]
        },
        "subject": {
          "reference": "Patient/736b5472-4a6f-4278-80d3-373d1c78c4c5"
        },
        "performedDateTime": "2026-01-01T00:30:00.000+00:00",
        "reasonCode": [
          {
            "coding": [
              {
                "system": "http://hl7.org/fhir/sid/icd-10-cm",
                "code": "E66.01",
                "display": "Morbid (severe) obesity due to excess calories",
                "userSelected": true
              }
            ]
          }
        ]
      },
      "request": {
        "method": "PUT",
        "url": "Procedure/c7b0a546-6d1b-40c9-b907-215d53fb5a37"
      }
    },
    {
      "fullUrl": "https://madie.cms.gov/Observation/ca392eb2-1a2f-45cd-963e-88b5fe667c0f",
      "resource": {
        "resourceType": "Observation",
        "id": "ca392eb2-1a2f-45cd-963e-88b5fe667c0f",
        "meta": {
          "profile": [
            "http://hl7.org/fhir/us/qicore/StructureDefinition/qicore-observation-screening-assessment"
          ]
        },
        "status": "final",
        "category": [
          {
            "coding": [
              {
                "system": "http://terminology.hl7.org/CodeSystem/observation-category",
                "code": "survey",
                "display": "Survey"
              }
            ]
          }
        ],
        "code": {
          "coding": [
            {
              "system": "http://loinc.org",
              "code": "45755-6",
              "display": "Hospice care [Minimum Data Set]",
              "userSelected": true
            }
          ]
        },
        "subject": {
          "reference": "Patient/736b5472-4a6f-4278-80d3-373d1c78c4c5"
        },
        "effectivePeriod": {
          "start": "2026-01-01T00:00:00.000+00:00",
          "end": "2026-01-01T00:30:00.000+00:00"
        },
        "issued": "2026-01-01T00:05:00.000+00:00",
        "valueCodeableConcept": {
          "coding": [
            {
              "system": "http://snomed.info/sct",
              "code": "373066001",
              "display": "Yes (qualifier value)",
              "userSelected": true
            }
          ]
        }
      },
      "request": {
        "method": "PUT",
        "url": "Observation/ca392eb2-1a2f-45cd-963e-88b5fe667c0f"
      }
    },
    {
      "fullUrl": "https://madie.cms.gov/Coverage/4d560663-0fec-4519-9fb7-629a49846bd9",
      "resource": {
        "resourceType": "Coverage",
        "id": "4d560663-0fec-4519-9fb7-629a49846bd9",
        "meta": {
          "profile": [
            "http://hl7.org/fhir/us/qicore/StructureDefinition/qicore-coverage"
          ]
        },
        "status": "active",
        "beneficiary": {
          "reference": "Patient/736b5472-4a6f-4278-80d3-373d1c78c4c5"
        },
        "payor": [
          {
            "reference": "Organization/c1cbd28e-59ed-42dd-8f30-d88a66a41573"
          }
        ]
      },
      "request": {
        "method": "PUT",
        "url": "Coverage/4d560663-0fec-4519-9fb7-629a49846bd9"
      }
    },
    {
      "fullUrl": "https://madie.cms.gov/Organization/c1cbd28e-59ed-42dd-8f30-d88a66a41573",
      "resource": {
        "resourceType": "Organization",
        "id": "c1cbd28e-59ed-42dd-8f30-d88a66a41573",
        "meta": {
          "profile": [
            "http://hl7.org/fhir/us/qicore/StructureDefinition/qicore-organization"
          ]
        },
        "identifier": [
          {
            "use": "temp",
            "system": "urn:oid:2.16.840.1.113883.4.4",
            "value": "21-3259825"
          }
        ],
        "active": true,
        "type": [
          {
            "coding": [
              {
                "system": "http://terminology.hl7.org/CodeSystem/organization-type",
                "code": "pay",
                "display": "Payer"
              }
            ]
          }
        ],
        "name": "Blue Cross Blue Shield of Texas",
        "telecom": [
          {
            "system": "phone",
            "value": "(+1) 972-766-6900"
          }
        ],
        "address": [
          {
            "use": "billing",
            "type": "postal",
            "line": ["P.O. Box 660044"],
            "city": "Dallas",
            "state": "TX",
            "postalCode": "75266-0044",
            "country": "USA"
          }
        ]
      },
      "request": {
        "method": "PUT",
        "url": "Organization/c1cbd28e-59ed-42dd-8f30-d88a66a41573"
      }
    },
    {
      "fullUrl": "https://madie.cms.gov/MeasureReport/c1dcb8c9-4dd0-4d96-9797-51969faf7696",
      "resource": {
        "resourceType": "MeasureReport",
        "id": "c1dcb8c9-4dd0-4d96-9797-51969faf7696",
        "meta": {
          "profile": [
            "http://hl7.org/fhir/us/cqfmeasures/StructureDefinition/test-case-cqfm"
          ]
        },
        "contained": [
          {
            "resourceType": "Parameters",
            "id": "b63ce563-bbd4-462a-9bda-dcdf6f21dda4-parameters",
            "parameter": [
              {
                "name": "subject",
                "valueString": "736b5472-4a6f-4278-80d3-373d1c78c4c5"
              }
            ]
          }
        ],
        "extension": [
          {
            "url": "http://hl7.org/fhir/StructureDefinition/cqf-inputParameters",
            "valueReference": {
              "reference": "#b63ce563-bbd4-462a-9bda-dcdf6f21dda4-parameters"
            }
          },
          {
            "url": "http://hl7.org/fhir/us/cqfmeasures/StructureDefinition/cqfm-testCaseDescription",
            "valueMarkdown": "Encounter during MP,  1/1  at  0000 to 0030, has hospice, edge test should pass the exclusion criteria,  "
          }
        ],
        "modifierExtension": [
          {
            "url": "http://hl7.org/fhir/us/cqfmeasures/StructureDefinition/cqfm-isTestCase",
            "valueBoolean": true
          }
        ],
        "status": "complete",
        "type": "individual",
        "measure": "https://madie.cms.gov/Measure/CMS69FHIRPCSBMIScreenAndFollowUp",
        "period": {
          "start": "2026-01-01",
          "end": "2026-12-31"
        },
        "group": [
          {
            "id": "Group_1",
            "population": [
              {
                "id": "InitialPopulation_1",
                "code": {
                  "coding": [
                    {
                      "system": "http://terminology.hl7.org/CodeSystem/measure-population",
                      "code": "initial-population",
                      "display": "Initial Population"
                    }
                  ]
                },
                "count": 1
              },
              {
                "id": "Denominator_1",
                "code": {
                  "coding": [
                    {
                      "system": "http://terminology.hl7.org/CodeSystem/measure-population",
                      "code": "denominator",
                      "display": "Denominator"
                    }
                  ]
                },
                "count": 1
              },
              {
                "id": "DenominatorExclusion_1",
                "code": {
                  "coding": [
                    {
                      "system": "http://terminology.hl7.org/CodeSystem/measure-population",
                      "code": "denominator-exclusion",
                      "display": "Denominator Exclusion"
                    }
                  ]
                },
                "count": 1
              },
              {
                "id": "Numerator_1",
                "code": {
                  "coding": [
                    {
                      "system": "http://terminology.hl7.org/CodeSystem/measure-population",
                      "code": "numerator",
                      "display": "Numerator"
                    }
                  ]
                },
                "count": 0
              },
              {
                "id": "DenominatorException_1",
                "code": {
                  "coding": [
                    {
                      "system": "http://terminology.hl7.org/CodeSystem/measure-population",
                      "code": "denominator-exception",
                      "display": "Denominator Exception"
                    }
                  ]
                },
                "count": 0
              }
            ],
            "measureScore": {
              "value": 1.0
            }
          }
        ],
        "evaluatedResource": [
          {
            "reference": "Patient/736b5472-4a6f-4278-80d3-373d1c78c4c5"
          },
          {
            "reference": "Encounter/5b42b17c-c6e8-4321-9e4b-c5b027b50486"
          },
          {
            "reference": "Observation/1a6b47b3-ee45-4599-87ed-92d527c4ea33"
          },
          {
            "reference": "Procedure/c7b0a546-6d1b-40c9-b907-215d53fb5a37"
          },
          {
            "reference": "Observation/ca392eb2-1a2f-45cd-963e-88b5fe667c0f"
          },
          {
            "reference": "Coverage/4d560663-0fec-4519-9fb7-629a49846bd9"
          },
          {
            "reference": "Organization/c1cbd28e-59ed-42dd-8f30-d88a66a41573"
          }
        ]
      },
      "request": {
        "method": "PUT",
        "url": "MeasureReport/c1dcb8c9-4dd0-4d96-9797-51969faf7696"
      }
    }
  ]
}
