{
  "resourceType": "Bundle",
  "id": "62df2c640056b6e23ec675ab",
  "type": "transaction",
  "entry": [ {
    "fullUrl": "https://madie.cms.gov/Patient/a4a1ed63-89ff-4d27-8819-136873e13171",
    "resource": {
      "resourceType": "Patient",
      "id": "a4a1ed63-89ff-4d27-8819-136873e13171",
      "meta": {
        "profile": [ "http://hl7.org/fhir/us/qicore/StructureDefinition/qicore-patient" ]
      },
      "extension": [ {
        "url": "http://hl7.org/fhir/us/core/StructureDefinition/us-core-race",
        "extension": [ {
          "url": "ombCategory",
          "valueCoding": {
            "system": "urn:oid:2.16.840.1.113883.6.238",
            "code": "2106-3",
            "display": "White",
            "userSelected": true
          }
        }, {
          "url": "text",
          "valueString": "White"
        } ]
      }, {
        "url": "http://hl7.org/fhir/us/core/StructureDefinition/us-core-ethnicity",
        "extension": [ {
          "url": "ombCategory",
          "valueCoding": {
            "system": "urn:oid:2.16.840.1.113883.6.238",
            "code": "2186-5",
            "display": "Not Hispanic or Latino",
            "userSelected": true
          }
        }, {
          "url": "text",
          "valueString": "Not Hispanic or Latino"
        } ]
      } ],
      "identifier": [ {
        "type": {
          "coding": [ {
            "system": "http://terminology.hl7.org/CodeSystem/v2-0203",
            "code": "MR"
          } ]
        },
        "system": "https://bonnie-fhir.healthit.gov/",
        "value": "62df2c640056b6e23ec675ab"
      } ],
      "name": [ {
        "family": "DENEXCEPPass",
        "given": [ "MedicalReasonMedicationForLowBMI" ]
      } ],
      "gender": "unknown",
      "birthDate": "1957-11-07"
    },
    "request": {
      "method": "PUT",
      "url": "Patient/a4a1ed63-89ff-4d27-8819-136873e13171"
    }
  }, {
    "fullUrl": "https://madie.cms.gov/Encounter/c52836b8-60e7-4414-bb5a-e082ccf5e91b",
    "resource": {
      "resourceType": "Encounter",
      "id": "c52836b8-60e7-4414-bb5a-e082ccf5e91b",
      "meta": {
        "profile": [ "http://hl7.org/fhir/us/qicore/StructureDefinition/qicore-encounter" ]
      },
      "status": "finished",
      "class": {
        "system": "http://terminology.hl7.org/CodeSystem/v3-ActCode",
        "code": "AMB",
        "display": "ambulatory"
      },
      "type": [ {
        "coding": [ {
          "system": "http://snomed.info/sct",
          "version": "2022-03",
          "code": "10197000",
          "display": "Psychiatric interview and evaluation (procedure)",
          "userSelected": true
        } ]
      } ],
      "subject": {
        "reference": "Patient/a4a1ed63-89ff-4d27-8819-136873e13171"
      },
      "period": {
        "start": "2026-01-01T08:00:00.000+00:00",
        "end": "2026-01-01T08:15:00.000+00:00"
      }
    },
    "request": {
      "method": "PUT",
      "url": "Encounter/c52836b8-60e7-4414-bb5a-e082ccf5e91b"
    }
  }, {
    "fullUrl": "https://madie.cms.gov/Observation/07986a9f-9940-4b09-aef9-6a8017f422a7",
    "resource": {
      "resourceType": "Observation",
      "id": "07986a9f-9940-4b09-aef9-6a8017f422a7",
      "meta": {
        "profile": [ "http://hl7.org/fhir/us/core/StructureDefinition/us-core-bmi" ]
      },
      "status": "amended",
      "category": [ {
        "coding": [ {
          "system": "http://terminology.hl7.org/CodeSystem/observation-category",
          "code": "vital-signs",
          "display": "Vital Signs"
        } ]
      } ],
      "code": {
        "coding": [ {
          "system": "http://loinc.org",
          "code": "39156-5",
          "display": "Body mass index (BMI) [Ratio]",
          "userSelected": true
        } ]
      },
      "subject": {
        "reference": "Patient/a4a1ed63-89ff-4d27-8819-136873e13171"
      },
      "effectiveDateTime": "2026-01-01T08:05:00.000+00:00",
      "valueQuantity": {
        "value": 18.4,
        "unit": "kg/m2",
        "system": "http://unitsofmeasure.org",
        "code": "kg/m2"
      }
    },
    "request": {
      "method": "PUT",
      "url": "Observation/07986a9f-9940-4b09-aef9-6a8017f422a7"
    }
  }, {
    "fullUrl": "https://madie.cms.gov/MedicationRequest/be163baa-bdcd-4595-acca-d767edfeb720",
    "resource": {
      "resourceType": "MedicationRequest",
      "id": "be163baa-bdcd-4595-acca-d767edfeb720",
      "meta": {
        "profile": [ "http://hl7.org/fhir/us/qicore/StructureDefinition/qicore-medicationnotrequested" ]
      },
      "status": "completed",
      "statusReason": {
        "coding": [ {
          "system": "http://snomed.info/sct",
          "code": "183932001",
          "display": "Procedure contraindicated (situation)",
          "userSelected": true
        } ]
      },
      "intent": "order",
      "doNotPerform": true,
      "medicationCodeableConcept": {
        "coding": [ {
          "system": "http://www.nlm.nih.gov/research/umls/rxnorm",
          "version": "2022-06",
          "code": "860221",
          "display": "megestrol acetate 40 MG Oral Tablet",
          "userSelected": true
        } ]
      },
      "subject": {
        "reference": "Patient/a4a1ed63-89ff-4d27-8819-136873e13171"
      },
      "authoredOn": "2026-01-01T08:10:00.000+00:00",
      "requester": {
        "reference": "Practitioner/practitioner-123456"
      },
      "reasonCode": [ {
        "coding": [ {
          "system": "http://snomed.info/sct",
          "code": "183932001",
          "display": "Procedure contraindicated (situation)"
        } ]
      } ]
    },
    "request": {
      "method": "PUT",
      "url": "MedicationRequest/be163baa-bdcd-4595-acca-d767edfeb720"
    }
  }, {
    "fullUrl": "https://madie.cms.gov/Coverage/cde7d9d3-3c7f-4a84-bd34-7a79cdc93a43",
    "resource": {
      "resourceType": "Coverage",
      "id": "cde7d9d3-3c7f-4a84-bd34-7a79cdc93a43",
      "meta": {
        "profile": [ "http://hl7.org/fhir/us/qicore/StructureDefinition/qicore-coverage" ]
      },
      "status": "active",
      "beneficiary": {
        "reference": "Patient/a4a1ed63-89ff-4d27-8819-136873e13171"
      },
      "payor": [ {
        "reference": "Organization/c06f76a0-b57e-4d4c-93a2-100b5777a3af"
      } ]
    },
    "request": {
      "method": "PUT",
      "url": "Coverage/cde7d9d3-3c7f-4a84-bd34-7a79cdc93a43"
    }
  }, {
    "fullUrl": "https://madie.cms.gov/Organization/c06f76a0-b57e-4d4c-93a2-100b5777a3af",
    "resource": {
      "resourceType": "Organization",
      "id": "c06f76a0-b57e-4d4c-93a2-100b5777a3af",
      "meta": {
        "profile": [ "http://hl7.org/fhir/us/qicore/StructureDefinition/qicore-organization" ]
      },
      "identifier": [ {
        "use": "temp",
        "system": "urn:oid:2.16.840.1.113883.4.4",
        "value": "21-3259825"
      } ],
      "active": true,
      "type": [ {
        "coding": [ {
          "system": "http://terminology.hl7.org/CodeSystem/organization-type",
          "code": "pay",
          "display": "Payer"
        } ]
      } ],
      "name": "Blue Cross Blue Shield of Texas",
      "telecom": [ {
        "system": "phone",
        "value": "(+1) 972-766-6900"
      } ],
      "address": [ {
        "use": "billing",
        "type": "postal",
        "line": [ "P.O. Box 660044" ],
        "city": "Dallas",
        "state": "TX",
        "postalCode": "75266-0044",
        "country": "USA"
      } ]
    },
    "request": {
      "method": "PUT",
      "url": "Organization/c06f76a0-b57e-4d4c-93a2-100b5777a3af"
    }
  }, {
    "fullUrl": "https://madie.cms.gov/MeasureReport/2d27d723-4957-4a76-b89e-6be50545c687",
    "resource": {
      "resourceType": "MeasureReport",
      "id": "2d27d723-4957-4a76-b89e-6be50545c687",
      "meta": {
        "profile": [ "http://hl7.org/fhir/us/cqfmeasures/StructureDefinition/test-case-cqfm" ]
      },
      "contained": [ {
        "resourceType": "Parameters",
        "id": "2823dd62-fb48-4a87-9e50-6db6d686d111-parameters",
        "parameter": [ {
          "name": "subject",
          "valueString": "a4a1ed63-89ff-4d27-8819-136873e13171"
        } ]
      } ],
      "extension": [ {
        "url": "http://hl7.org/fhir/StructureDefinition/cqf-inputParameters",
        "valueReference": {
          "reference": "#2823dd62-fb48-4a87-9e50-6db6d686d111-parameters"
        }
      }, {
        "url": "http://hl7.org/fhir/us/cqfmeasures/StructureDefinition/cqfm-testCaseDescription",
        "valueMarkdown": "Enc first day of MP, Low BMI with medical reason for not providing medication"
      } ],
      "modifierExtension": [ {
        "url": "http://hl7.org/fhir/us/cqfmeasures/StructureDefinition/cqfm-isTestCase",
        "valueBoolean": true
      } ],
      "status": "complete",
      "type": "individual",
      "measure": "https://madie.cms.gov/Measure/CMS69FHIRPCSBMIScreenAndFollowUp",
      "period": {
        "start": "2026-01-01",
        "end": "2026-12-31"
      },
      "group": [ {
        "id": "Group_1",
        "population": [ {
          "id": "InitialPopulation_1",
          "code": {
            "coding": [ {
              "system": "http://terminology.hl7.org/CodeSystem/measure-population",
              "code": "initial-population",
              "display": "Initial Population"
            } ]
          },
          "count": 1
        }, {
          "id": "Denominator_1",
          "code": {
            "coding": [ {
              "system": "http://terminology.hl7.org/CodeSystem/measure-population",
              "code": "denominator",
              "display": "Denominator"
            } ]
          },
          "count": 1
        }, {
          "id": "DenominatorExclusion_1",
          "code": {
            "coding": [ {
              "system": "http://terminology.hl7.org/CodeSystem/measure-population",
              "code": "denominator-exclusion",
              "display": "Denominator Exclusion"
            } ]
          },
          "count": 0
        }, {
          "id": "Numerator_1",
          "code": {
            "coding": [ {
              "system": "http://terminology.hl7.org/CodeSystem/measure-population",
              "code": "numerator",
              "display": "Numerator"
            } ]
          },
          "count": 0
        }, {
          "id": "DenominatorException_1",
          "code": {
            "coding": [ {
              "system": "http://terminology.hl7.org/CodeSystem/measure-population",
              "code": "denominator-exception",
              "display": "Denominator Exception"
            } ]
          },
          "count": 1
        } ],
        "measureScore": {
          "value": 1.0
        }
      } ],
      "evaluatedResource": [ {
        "reference": "Patient/a4a1ed63-89ff-4d27-8819-136873e13171"
      }, {
        "reference": "Encounter/c52836b8-60e7-4414-bb5a-e082ccf5e91b"
      }, {
        "reference": "Observation/07986a9f-9940-4b09-aef9-6a8017f422a7"
      }, {
        "reference": "MedicationRequest/be163baa-bdcd-4595-acca-d767edfeb720"
      }, {
        "reference": "Coverage/cde7d9d3-3c7f-4a84-bd34-7a79cdc93a43"
      }, {
        "reference": "Organization/c06f76a0-b57e-4d4c-93a2-100b5777a3af"
      } ]
    },
    "request": {
      "method": "PUT",
      "url": "MeasureReport/2d27d723-4957-4a76-b89e-6be50545c687"
    }
  } ]
}