{
  "resourceType": "Bundle",
  "id": "62d061a9f924c8924458d151",
  "type": "transaction",
  "entry": [ {
    "fullUrl": "https://madie.cms.gov/Patient/0278fdf0-f067-46e8-aeb1-fb96dff3c947",
    "resource": {
      "resourceType": "Patient",
      "id": "0278fdf0-f067-46e8-aeb1-fb96dff3c947",
      "meta": {
        "profile": [ "http://hl7.org/fhir/us/qicore/StructureDefinition/qicore-patient" ]
      },
      "extension": [ {
        "url": "http://hl7.org/fhir/us/core/StructureDefinition/us-core-race",
        "extension": [ {
          "url": "ombCategory",
          "valueCoding": {
            "system": "urn:oid:2.16.840.1.113883.6.238",
            "code": "2054-5",
            "display": "Black or African American",
            "userSelected": true
          }
        }, {
          "url": "text",
          "valueString": "Black or African American"
        } ]
      }, {
        "url": "http://hl7.org/fhir/us/core/StructureDefinition/us-core-ethnicity",
        "extension": [ {
          "url": "ombCategory",
          "valueCoding": {
            "system": "urn:oid:2.16.840.1.113883.6.238",
            "code": "2135-2",
            "display": "Hispanic or Latino",
            "userSelected": true
          }
        }, {
          "url": "text",
          "valueString": "Hispanic or Latino"
        } ]
      }, {
        "url": "http://hl7.org/fhir/us/core/StructureDefinition/us-core-sex",
        "valueCode": "248153007"
      } ],
      "identifier": [ {
        "type": {
          "coding": [ {
            "system": "http://terminology.hl7.org/CodeSystem/v2-0203",
            "code": "MR"
          } ]
        },
        "system": "https://bonnie-fhir.healthit.gov/",
        "value": "62d061a9f924c8924458d151"
      } ],
      "name": [ {
        "family": "DENEXCEPPass",
        "given": [ "HTN130DeclinedNonPharm" ]
      } ],
      "gender": "male",
      "birthDate": "2006-01-31"
    },
    "request": {
      "method": "PUT",
      "url": "Patient/0278fdf0-f067-46e8-aeb1-fb96dff3c947"
    }
  }, {
    "fullUrl": "https://madie.cms.gov/Encounter/dbe8c09a-ae37-496c-bf5c-34aad18abc91",
    "resource": {
      "resourceType": "Encounter",
      "id": "dbe8c09a-ae37-496c-bf5c-34aad18abc91",
      "meta": {
        "profile": [ "http://hl7.org/fhir/us/qicore/StructureDefinition/qicore-encounter" ]
      },
      "status": "finished",
      "class": {
        "system": "http://terminology.hl7.org/CodeSystem/v3-ActCode",
        "code": "AMB",
        "display": "ambulatory"
      },
      "type": [ {
        "coding": [ {
          "system": "http://snomed.info/sct",
          "version": "2022-03",
          "code": "185465003",
          "display": "Weekend visit (procedure)",
          "userSelected": true
        } ]
      } ],
      "subject": {
        "reference": "Patient/0278fdf0-f067-46e8-aeb1-fb96dff3c947"
      },
      "period": {
        "start": "2026-01-01T08:00:00.000+00:00",
        "end": "2026-01-01T08:30:00.000+00:00"
      }
    },
    "request": {
      "method": "PUT",
      "url": "Encounter/dbe8c09a-ae37-496c-bf5c-34aad18abc91"
    }
  }, {
    "fullUrl": "https://madie.cms.gov/Observation/191645e4-7a23-44e5-963a-e09a6e70a194",
    "resource": {
      "resourceType": "Observation",
      "id": "191645e4-7a23-44e5-963a-e09a6e70a194",
      "meta": {
        "profile": [ "http://hl7.org/fhir/StructureDefinition/bp" ]
      },
      "status": "final",
      "category": [ {
        "coding": [ {
          "system": "http://terminology.hl7.org/CodeSystem/observation-category",
          "code": "vital-signs",
          "display": "Vital Signs"
        } ],
        "text": "Vital Signs"
      } ],
      "code": {
        "coding": [ {
          "system": "http://loinc.org",
          "code": "85354-9",
          "display": "Blood pressure panel"
        } ]
      },
      "subject": {
        "reference": "Patient/0278fdf0-f067-46e8-aeb1-fb96dff3c947"
      },
      "effectiveDateTime": "2026-01-01T08:29:00.000Z",
      "component": [ {
        "code": {
          "coding": [ {
            "system": "http://loinc.org",
            "code": "8480-6",
            "display": "Systolic blood pressure"
          } ]
        },
        "valueQuantity": {
          "value": 130,
          "unit": "mmHg",
          "system": "http://unitsofmeasure.org",
          "code": "mm[Hg]"
        }
      }, {
        "code": {
          "coding": [ {
            "system": "http://loinc.org",
            "code": "8462-4",
            "display": "Diastolic blood pressure"
          } ]
        },
        "valueQuantity": {
          "value": 79,
          "unit": "mmHg",
          "system": "http://unitsofmeasure.org",
          "code": "mm[Hg]"
        }
      } ]
    },
    "request": {
      "method": "PUT",
      "url": "Observation/191645e4-7a23-44e5-963a-e09a6e70a194"
    }
  }, {
    "fullUrl": "https://madie.cms.gov/ServiceRequest/11b7b338-b9e9-4bd0-8ac8-3633459a603e",
    "resource": {
      "resourceType": "ServiceRequest",
      "id": "11b7b338-b9e9-4bd0-8ac8-3633459a603e",
      "meta": {
        "profile": [ "http://hl7.org/fhir/us/qicore/StructureDefinition/qicore-servicenotrequested" ]
      },
      "extension": [ {
        "url": "http://hl7.org/fhir/us/qicore/StructureDefinition/qicore-doNotPerformReason",
        "valueCodeableConcept": {
          "coding": [ {
            "system": "http://snomed.info/sct",
            "code": "407563006",
            "display": "Treatment not tolerated (situation)",
            "userSelected": true
          } ]
        }
      } ],
      "status": "completed",
      "intent": "order",
      "doNotPerform": true,
      "code": {
        "coding": [ {
          "system": "http://snomed.info/sct",
          "version": "2022-03",
          "code": "386292004",
          "display": "Exercise promotion: stretching (procedure)",
          "userSelected": true
        } ]
      },
      "subject": {
        "reference": "Patient/0278fdf0-f067-46e8-aeb1-fb96dff3c947"
      },
      "authoredOn": "2026-01-01T08:01:00.000+00:00"
    },
    "request": {
      "method": "PUT",
      "url": "ServiceRequest/11b7b338-b9e9-4bd0-8ac8-3633459a603e"
    }
  }, {
    "fullUrl": "https://madie.cms.gov/Coverage/2f29fbeb-f877-4755-ba10-b6a3dceaeb3e",
    "resource": {
      "resourceType": "Coverage",
      "id": "2f29fbeb-f877-4755-ba10-b6a3dceaeb3e",
      "meta": {
        "profile": [ "http://hl7.org/fhir/us/qicore/StructureDefinition/qicore-coverage" ]
      },
      "status": "active",
      "beneficiary": {
        "reference": "Patient/0278fdf0-f067-46e8-aeb1-fb96dff3c947"
      },
      "payor": [ {
        "reference": "Organization/641254ef-e9d8-41ee-95a6-3572f2ad3fe0"
      } ]
    },
    "request": {
      "method": "PUT",
      "url": "Coverage/2f29fbeb-f877-4755-ba10-b6a3dceaeb3e"
    }
  }, {
    "fullUrl": "https://madie.cms.gov/Organization/641254ef-e9d8-41ee-95a6-3572f2ad3fe0",
    "resource": {
      "resourceType": "Organization",
      "id": "641254ef-e9d8-41ee-95a6-3572f2ad3fe0",
      "meta": {
        "profile": [ "http://hl7.org/fhir/us/qicore/StructureDefinition/qicore-organization" ]
      },
      "identifier": [ {
        "use": "temp",
        "system": "urn:oid:2.16.840.1.113883.4.4",
        "value": "21-3259825"
      } ],
      "active": true,
      "type": [ {
        "coding": [ {
          "system": "http://terminology.hl7.org/CodeSystem/organization-type",
          "code": "pay",
          "display": "Payer"
        } ]
      } ],
      "name": "Blue Cross Blue Shield of Texas",
      "telecom": [ {
        "system": "phone",
        "value": "(+1) 972-766-6900"
      } ],
      "address": [ {
        "use": "billing",
        "type": "postal",
        "line": [ "P.O. Box 660044" ],
        "city": "Dallas",
        "state": "TX",
        "postalCode": "75266-0044",
        "country": "USA"
      } ]
    },
    "request": {
      "method": "PUT",
      "url": "Organization/641254ef-e9d8-41ee-95a6-3572f2ad3fe0"
    }
  }, {
    "fullUrl": "https://madie.cms.gov/Practitioner/aaba12ac-105d-4edf-ba87-4068b804887a",
    "resource": {
      "resourceType": "Practitioner",
      "id": "aaba12ac-105d-4edf-ba87-4068b804887a",
      "meta": {
        "profile": [ "http://hl7.org/fhir/us/qicore/StructureDefinition/qicore-practitioner" ]
      },
      "identifier": [ {
        "system": "http://hl7.org/fhir/sid/us-npi",
        "value": "123456"
      } ],
      "name": [ {
        "family": "Evil",
        "prefix": [ "Dr" ]
      } ]
    },
    "request": {
      "method": "PUT",
      "url": "Practitioner/aaba12ac-105d-4edf-ba87-4068b804887a"
    }
  }, {
    "fullUrl": "https://madie.cms.gov/MeasureReport/4828792a-55b2-4bbe-9c7e-195d5f24759e",
    "resource": {
      "resourceType": "MeasureReport",
      "id": "4828792a-55b2-4bbe-9c7e-195d5f24759e",
      "meta": {
        "profile": [ "http://hl7.org/fhir/us/cqfmeasures/StructureDefinition/test-case-cqfm" ]
      },
      "contained": [ {
        "resourceType": "Parameters",
        "id": "02cab95e-3609-4c4a-a4d6-b02f03c0d3cc-parameters",
        "parameter": [ {
          "name": "subject",
          "valueString": "0278fdf0-f067-46e8-aeb1-fb96dff3c947"
        } ]
      } ],
      "extension": [ {
        "url": "http://hl7.org/fhir/StructureDefinition/cqf-inputParameters",
        "valueReference": {
          "reference": "#02cab95e-3609-4c4a-a4d6-b02f03c0d3cc-parameters"
        }
      }, {
        "url": "http://hl7.org/fhir/us/cqfmeasures/StructureDefinition/cqfm-testCaseDescription",
        "valueMarkdown": "Enc. 01/01 0800-0830 during MP, age 20, BP 130/79 at 0829, declined recommendation to exercise."
      } ],
      "modifierExtension": [ {
        "url": "http://hl7.org/fhir/us/cqfmeasures/StructureDefinition/cqfm-isTestCase",
        "valueBoolean": true
      } ],
      "status": "complete",
      "type": "individual",
      "measure": "https://madie.cms.gov/Measure/CMS69FHIRPCSBMIScreenAndFollowUp",
      "period": {
        "start": "2026-01-01",
        "end": "2026-12-31"
      },
      "group": [ {
        "id": "Group_1",
        "population": [ {
          "id": "InitialPopulation_1",
          "code": {
            "coding": [ {
              "system": "http://terminology.hl7.org/CodeSystem/measure-population",
              "code": "initial-population",
              "display": "Initial Population"
            } ]
          },
          "count": 1
        }, {
          "id": "Denominator_1",
          "code": {
            "coding": [ {
              "system": "http://terminology.hl7.org/CodeSystem/measure-population",
              "code": "denominator",
              "display": "Denominator"
            } ]
          },
          "count": 1
        }, {
          "id": "DenominatorExclusion_1",
          "code": {
            "coding": [ {
              "system": "http://terminology.hl7.org/CodeSystem/measure-population",
              "code": "denominator-exclusion",
              "display": "Denominator Exclusion"
            } ]
          },
          "count": 0
        }, {
          "id": "Numerator_1",
          "code": {
            "coding": [ {
              "system": "http://terminology.hl7.org/CodeSystem/measure-population",
              "code": "numerator",
              "display": "Numerator"
            } ]
          },
          "count": 0
        }, {
          "id": "DenominatorException_1",
          "code": {
            "coding": [ {
              "system": "http://terminology.hl7.org/CodeSystem/measure-population",
              "code": "denominator-exception",
              "display": "Denominator Exception"
            } ]
          },
          "count": 1
        } ],
        "measureScore": {
          "value": 1.0
        }
      } ],
      "evaluatedResource": [ {
        "reference": "Patient/0278fdf0-f067-46e8-aeb1-fb96dff3c947"
      }, {
        "reference": "Encounter/dbe8c09a-ae37-496c-bf5c-34aad18abc91"
      }, {
        "reference": "Observation/191645e4-7a23-44e5-963a-e09a6e70a194"
      }, {
        "reference": "ServiceRequest/11b7b338-b9e9-4bd0-8ac8-3633459a603e"
      }, {
        "reference": "Coverage/2f29fbeb-f877-4755-ba10-b6a3dceaeb3e"
      }, {
        "reference": "Organization/641254ef-e9d8-41ee-95a6-3572f2ad3fe0"
      }, {
        "reference": "Practitioner/aaba12ac-105d-4edf-ba87-4068b804887a"
      } ]
    },
    "request": {
      "method": "PUT",
      "url": "MeasureReport/4828792a-55b2-4bbe-9c7e-195d5f24759e"
    }
  } ]
}