{
  "resourceType": "Bundle",
  "id": "62fc2137c4f1a6ed8db31c2e",
  "type": "transaction",
  "entry": [
    {
      "fullUrl": "https://madie.cms.gov/Patient/88a2b45a-7866-445a-8242-91ec0ebb7646",
      "resource": {
        "resourceType": "Patient",
        "id": "88a2b45a-7866-445a-8242-91ec0ebb7646",
        "meta": {
          "profile": [
            "http://hl7.org/fhir/us/qicore/StructureDefinition/qicore-patient"
          ]
        },
        "extension": [
          {
            "url": "http://hl7.org/fhir/us/core/StructureDefinition/us-core-race",
            "extension": [
              {
                "url": "ombCategory",
                "valueCoding": {
                  "system": "urn:oid:2.16.840.1.113883.6.238",
                  "code": "2106-3",
                  "display": "White",
                  "userSelected": true
                }
              },
              {
                "url": "text",
                "valueString": "White"
              }
            ]
          },
          {
            "url": "http://hl7.org/fhir/us/core/StructureDefinition/us-core-ethnicity",
            "extension": [
              {
                "url": "ombCategory",
                "valueCoding": {
                  "system": "urn:oid:2.16.840.1.113883.6.238",
                  "code": "2186-5",
                  "display": "Not Hispanic or Latino",
                  "userSelected": true
                }
              },
              {
                "url": "text",
                "valueString": "Not Hispanic or Latino"
              }
            ]
          }
        ],
        "identifier": [
          {
            "type": {
              "coding": [
                {
                  "system": "http://terminology.hl7.org/CodeSystem/v2-0203",
                  "code": "MR"
                }
              ]
            },
            "system": "https://bonnie-fhir.healthit.gov/",
            "value": "62fc2137c4f1a6ed8db31c2e"
          }
        ],
        "name": [
          {
            "family": "DENEXCEPPass",
            "given": ["MedicalReasonFollowupPlanLowBMI"]
          }
        ],
        "gender": "unknown",
        "birthDate": "1957-11-07"
      },
      "request": {
        "method": "PUT",
        "url": "Patient/88a2b45a-7866-445a-8242-91ec0ebb7646"
      }
    },
    {
      "fullUrl": "https://madie.cms.gov/Encounter/a02c3b38-3b80-4fba-b052-2c8f3b0eba9e",
      "resource": {
        "resourceType": "Encounter",
        "id": "a02c3b38-3b80-4fba-b052-2c8f3b0eba9e",
        "meta": {
          "profile": [
            "http://hl7.org/fhir/us/qicore/StructureDefinition/qicore-encounter"
          ]
        },
        "status": "finished",
        "class": {
          "system": "http://terminology.hl7.org/CodeSystem/v3-ActCode",
          "code": "AMB",
          "display": "ambulatory"
        },
        "type": [
          {
            "coding": [
              {
                "system": "http://snomed.info/sct",
                "version": "2022-03",
                "code": "10197000",
                "display": "Psychiatric interview and evaluation (procedure)",
                "userSelected": true
              }
            ]
          }
        ],
        "subject": {
          "reference": "Patient/88a2b45a-7866-445a-8242-91ec0ebb7646"
        },
        "period": {
          "start": "2026-01-01T08:00:00.000+00:00",
          "end": "2026-01-01T08:15:00.000+00:00"
        }
      },
      "request": {
        "method": "PUT",
        "url": "Encounter/a02c3b38-3b80-4fba-b052-2c8f3b0eba9e"
      }
    },
    {
      "fullUrl": "https://madie.cms.gov/Observation/cff2ace6-c92d-469a-be77-07b76823a903",
      "resource": {
        "resourceType": "Observation",
        "id": "cff2ace6-c92d-469a-be77-07b76823a903",
        "meta": {
          "profile": [
            "http://hl7.org/fhir/us/qicore/StructureDefinition/qicore-simple-observation"
          ]
        },
        "status": "final",
        "category": [
          {
            "coding": [
              {
                "system": "http://terminology.hl7.org/CodeSystem/observation-category",
                "code": "procedure",
                "display": "Procedure"
              }
            ]
          }
        ],
        "code": {
          "coding": [
            {
              "system": "http://loinc.org",
              "code": "39156-5",
              "display": "Body mass index (BMI) [Ratio]",
              "userSelected": true
            }
          ]
        },
        "subject": {
          "reference": "Patient/88a2b45a-7866-445a-8242-91ec0ebb7646"
        },
        "effectiveDateTime": "2026-06-15T08:05:00.000+00:00",
        "valueQuantity": {
          "value": 15.0,
          "unit": "kg/m2",
          "system": "http://unitsofmeasure.org",
          "code": "kg/m2"
        }
      },
      "request": {
        "method": "PUT",
        "url": "Observation/cff2ace6-c92d-469a-be77-07b76823a903"
      }
    },
    {
      "fullUrl": "https://madie.cms.gov/ServiceRequest/f3e36dde-0631-4ad2-a2dd-1669e53dfb67",
      "resource": {
        "resourceType": "ServiceRequest",
        "id": "f3e36dde-0631-4ad2-a2dd-1669e53dfb67",
        "meta": {
          "profile": [
            "http://hl7.org/fhir/us/qicore/StructureDefinition/qicore-servicenotrequested"
          ]
        },
        "extension": [
          {
            "url": "http://hl7.org/fhir/us/qicore/StructureDefinition/qicore-doNotPerformReason",
            "valueCodeableConcept": {
              "coding": [
                {
                  "system": "http://snomed.info/sct",
                  "code": "183932001",
                  "display": "Procedure contraindicated (situation)",
                  "userSelected": true
                }
              ]
            }
          },
          {
            "url": "http://hl7.org/fhir/us/qicore/StructureDefinition/qicore-reasonRefused",
            "valueCodeableConcept": {
              "coding": [
                {
                  "system": "http://snomed.info/sct",
                  "code": "183932001",
                  "display": "Procedure contraindicated (situation)",
                  "userSelected": true
                }
              ]
            }
          }
        ],
        "status": "completed",
        "intent": "order",
        "doNotPerform": true,
        "code": {
          "coding": [
            {
              "system": "http://snomed.info/sct",
              "version": "2022-03",
              "code": "182922004",
              "display": "Dietary regime (regime/therapy)",
              "userSelected": true
            }
          ]
        },
        "subject": {
          "reference": "Patient/88a2b45a-7866-445a-8242-91ec0ebb7646"
        },
        "authoredOn": "2026-01-01T08:00:00.000+00:00",
        "reasonCode": [
          {
            "coding": [
              {
                "system": "http://snomed.info/sct",
                "code": "183932001",
                "display": "Procedure contraindicated (situation)",
                "userSelected": true
              }
            ]
          }
        ]
      },
      "request": {
        "method": "PUT",
        "url": "ServiceRequest/f3e36dde-0631-4ad2-a2dd-1669e53dfb67"
      }
    },
    {
      "fullUrl": "https://madie.cms.gov/Coverage/ad129da1-b529-4248-bd6d-863f4c2649c1",
      "resource": {
        "resourceType": "Coverage",
        "id": "ad129da1-b529-4248-bd6d-863f4c2649c1",
        "meta": {
          "profile": [
            "http://hl7.org/fhir/us/qicore/StructureDefinition/qicore-coverage"
          ]
        },
        "status": "active",
        "beneficiary": {
          "reference": "Patient/88a2b45a-7866-445a-8242-91ec0ebb7646"
        },
        "payor": [
          {
            "reference": "Organization/75f29082-abcd-48bf-8f14-d6e8426dec0e"
          }
        ]
      },
      "request": {
        "method": "PUT",
        "url": "Coverage/ad129da1-b529-4248-bd6d-863f4c2649c1"
      }
    },
    {
      "fullUrl": "https://madie.cms.gov/Organization/75f29082-abcd-48bf-8f14-d6e8426dec0e",
      "resource": {
        "resourceType": "Organization",
        "id": "75f29082-abcd-48bf-8f14-d6e8426dec0e",
        "meta": {
          "profile": [
            "http://hl7.org/fhir/us/qicore/StructureDefinition/qicore-organization"
          ]
        },
        "identifier": [
          {
            "use": "temp",
            "system": "urn:oid:2.16.840.1.113883.4.4",
            "value": "21-3259825"
          }
        ],
        "active": true,
        "type": [
          {
            "coding": [
              {
                "system": "http://terminology.hl7.org/CodeSystem/organization-type",
                "code": "pay",
                "display": "Payer"
              }
            ]
          }
        ],
        "name": "Blue Cross Blue Shield of Texas",
        "telecom": [
          {
            "system": "phone",
            "value": "(+1) 972-766-6900"
          }
        ],
        "address": [
          {
            "use": "billing",
            "type": "postal",
            "line": ["P.O. Box 660044"],
            "city": "Dallas",
            "state": "TX",
            "postalCode": "75266-0044",
            "country": "USA"
          }
        ]
      },
      "request": {
        "method": "PUT",
        "url": "Organization/75f29082-abcd-48bf-8f14-d6e8426dec0e"
      }
    },
    {
      "fullUrl": "https://madie.cms.gov/Practitioner/5feede54-f106-40bf-8da1-c0a96d2e3dc9",
      "resource": {
        "resourceType": "Practitioner",
        "id": "5feede54-f106-40bf-8da1-c0a96d2e3dc9",
        "meta": {
          "profile": [
            "http://hl7.org/fhir/us/qicore/StructureDefinition/qicore-practitioner"
          ]
        },
        "identifier": [
          {
            "system": "http://hl7.org/fhir/sid/us-npi",
            "value": "123456"
          }
        ],
        "name": [
          {
            "family": "Evil",
            "prefix": ["Dr"]
          }
        ]
      },
      "request": {
        "method": "PUT",
        "url": "Practitioner/5feede54-f106-40bf-8da1-c0a96d2e3dc9"
      }
    },
    {
      "fullUrl": "https://madie.cms.gov/MeasureReport/f37db82a-1b34-4fdd-87ca-64d9243b9224",
      "resource": {
        "resourceType": "MeasureReport",
        "id": "f37db82a-1b34-4fdd-87ca-64d9243b9224",
        "meta": {
          "profile": [
            "http://hl7.org/fhir/us/cqfmeasures/StructureDefinition/test-case-cqfm"
          ]
        },
        "contained": [
          {
            "resourceType": "Parameters",
            "id": "62d0deed-4cc4-4a97-bb5e-46ad841f60a4-parameters",
            "parameter": [
              {
                "name": "subject",
                "valueString": "88a2b45a-7866-445a-8242-91ec0ebb7646"
              }
            ]
          }
        ],
        "extension": [
          {
            "url": "http://hl7.org/fhir/StructureDefinition/cqf-inputParameters",
            "valueReference": {
              "reference": "#62d0deed-4cc4-4a97-bb5e-46ad841f60a4-parameters"
            }
          },
          {
            "url": "http://hl7.org/fhir/us/cqfmeasures/StructureDefinition/cqfm-testCaseDescription",
            "valueMarkdown": "Enc first day of MP, BMI in June 15.0 kg/m2, no follow during enc with medical reason"
          }
        ],
        "modifierExtension": [
          {
            "url": "http://hl7.org/fhir/us/cqfmeasures/StructureDefinition/cqfm-isTestCase",
            "valueBoolean": true
          }
        ],
        "status": "complete",
        "type": "individual",
        "measure": "https://madie.cms.gov/Measure/CMS69FHIRPCSBMIScreenAndFollowUp",
        "period": {
          "start": "2026-01-01",
          "end": "2026-12-31"
        },
        "group": [
          {
            "id": "Group_1",
            "population": [
              {
                "id": "InitialPopulation_1",
                "code": {
                  "coding": [
                    {
                      "system": "http://terminology.hl7.org/CodeSystem/measure-population",
                      "code": "initial-population",
                      "display": "Initial Population"
                    }
                  ]
                },
                "count": 1
              },
              {
                "id": "Denominator_1",
                "code": {
                  "coding": [
                    {
                      "system": "http://terminology.hl7.org/CodeSystem/measure-population",
                      "code": "denominator",
                      "display": "Denominator"
                    }
                  ]
                },
                "count": 1
              },
              {
                "id": "DenominatorExclusion_1",
                "code": {
                  "coding": [
                    {
                      "system": "http://terminology.hl7.org/CodeSystem/measure-population",
                      "code": "denominator-exclusion",
                      "display": "Denominator Exclusion"
                    }
                  ]
                },
                "count": 0
              },
              {
                "id": "Numerator_1",
                "code": {
                  "coding": [
                    {
                      "system": "http://terminology.hl7.org/CodeSystem/measure-population",
                      "code": "numerator",
                      "display": "Numerator"
                    }
                  ]
                },
                "count": 0
              },
              {
                "id": "DenominatorException_1",
                "code": {
                  "coding": [
                    {
                      "system": "http://terminology.hl7.org/CodeSystem/measure-population",
                      "code": "denominator-exception",
                      "display": "Denominator Exception"
                    }
                  ]
                },
                "count": 1
              }
            ],
            "measureScore": {
              "value": 1.0
            }
          }
        ],
        "evaluatedResource": [
          {
            "reference": "Patient/88a2b45a-7866-445a-8242-91ec0ebb7646"
          },
          {
            "reference": "Encounter/a02c3b38-3b80-4fba-b052-2c8f3b0eba9e"
          },
          {
            "reference": "Observation/cff2ace6-c92d-469a-be77-07b76823a903"
          },
          {
            "reference": "ServiceRequest/f3e36dde-0631-4ad2-a2dd-1669e53dfb67"
          },
          {
            "reference": "Coverage/ad129da1-b529-4248-bd6d-863f4c2649c1"
          },
          {
            "reference": "Organization/75f29082-abcd-48bf-8f14-d6e8426dec0e"
          },
          {
            "reference": "Practitioner/5feede54-f106-40bf-8da1-c0a96d2e3dc9"
          }
        ]
      },
      "request": {
        "method": "PUT",
        "url": "MeasureReport/f37db82a-1b34-4fdd-87ca-64d9243b9224"
      }
    }
  ]
}
