{
  "resourceType": "Bundle",
  "id": "DENEXPass-FrailtyEncOverlapsMP",
  "type": "transaction",
  "entry": [ {
    "fullUrl": "https://madie.cms.gov/Patient/8ffd1c24-67a9-4991-86cb-3378a45ffd6e",
    "resource": {
      "resourceType": "Patient",
      "id": "8ffd1c24-67a9-4991-86cb-3378a45ffd6e",
      "meta": {
        "profile": [ "http://hl7.org/fhir/us/qicore/StructureDefinition/qicore-patient" ]
      },
      "extension": [ {
        "url": "http://hl7.org/fhir/us/core/StructureDefinition/us-core-race",
        "extension": [ {
          "url": "ombCategory",
          "valueCoding": {
            "system": "urn:oid:2.16.840.1.113883.6.238",
            "code": "2028-9",
            "display": "Asian",
            "userSelected": true
          }
        }, {
          "url": "text",
          "valueString": "Asian"
        } ]
      }, {
        "url": "http://hl7.org/fhir/us/core/StructureDefinition/us-core-ethnicity",
        "extension": [ {
          "url": "ombCategory",
          "valueCoding": {
            "system": "urn:oid:2.16.840.1.113883.6.238",
            "code": "2135-2",
            "display": "Hispanic or Latino",
            "userSelected": true
          }
        }, {
          "url": "text",
          "valueString": "Hispanic or Latino"
        } ]
      } ],
      "identifier": [ {
        "type": {
          "coding": [ {
            "system": "http://terminology.hl7.org/CodeSystem/v2-0203",
            "code": "MR"
          } ]
        },
        "system": "http://hospital.smarthealthit.org",
        "value": "999999995"
      } ],
      "name": [ {
        "family": "Bertha",
        "given": [ "Betty" ]
      } ],
      "gender": "female",
      "birthDate": "1954-12-31"
    },
    "request": {
      "method": "PUT",
      "url": "Patient/8ffd1c24-67a9-4991-86cb-3378a45ffd6e"
    }
  }, {
    "fullUrl": "https://madie.cms.gov/Encounter/62a293cd-1585-4bdf-9cfe-8524aa78460b",
    "resource": {
      "resourceType": "Encounter",
      "id": "62a293cd-1585-4bdf-9cfe-8524aa78460b",
      "meta": {
        "profile": [ "http://hl7.org/fhir/us/qicore/StructureDefinition/qicore-encounter" ]
      },
      "status": "finished",
      "class": {
        "system": "http://terminology.hl7.org/CodeSystem/v3-ActCode",
        "code": "AMB",
        "display": "ambulatory"
      },
      "type": [ {
        "coding": [ {
          "system": "http://snomed.info/sct",
          "code": "456201000124103",
          "display": "Medicare annual wellness visit (procedure)"
        } ]
      } ],
      "subject": {
        "reference": "Patient/8ffd1c24-67a9-4991-86cb-3378a45ffd6e"
      },
      "period": {
        "start": "2026-01-01T00:00:00.000+00:00",
        "end": "2026-01-01T00:00:00.000+00:00"
      }
    },
    "request": {
      "method": "PUT",
      "url": "Encounter/62a293cd-1585-4bdf-9cfe-8524aa78460b"
    }
  }, {
    "fullUrl": "https://madie.cms.gov/Condition/44ac13d8-1a3d-4a17-81ee-503b06514e70",
    "resource": {
      "resourceType": "Condition",
      "id": "44ac13d8-1a3d-4a17-81ee-503b06514e70",
      "meta": {
        "profile": [ "http://hl7.org/fhir/us/qicore/StructureDefinition/qicore-condition-encounter-diagnosis" ]
      },
      "clinicalStatus": {
        "coding": [ {
          "system": "http://terminology.hl7.org/CodeSystem/condition-clinical",
          "code": "active"
        } ]
      },
      "category": [ {
        "coding": [ {
          "system": "http://terminology.hl7.org/CodeSystem/condition-category",
          "code": "problem-list-item",
          "display": "Problem List Item"
        } ]
      } ],
      "code": {
        "coding": [ {
          "system": "http://snomed.info/sct",
          "code": "102781000119107",
          "display": "Sensory neuropathy due to type 1 diabetes mellitus (disorder)"
        } ]
      },
      "subject": {
        "reference": "Patient/8ffd1c24-67a9-4991-86cb-3378a45ffd6e"
      },
      "onsetDateTime": "2026-01-01T00:00:00.000+00:00"
    },
    "request": {
      "method": "PUT",
      "url": "Condition/44ac13d8-1a3d-4a17-81ee-503b06514e70"
    }
  }, {
    "fullUrl": "https://madie.cms.gov/MedicationRequest/23ca1574-9ff5-41ef-bc3a-0d61f58f0f54",
    "resource": {
      "resourceType": "MedicationRequest",
      "id": "23ca1574-9ff5-41ef-bc3a-0d61f58f0f54",
      "meta": {
        "profile": [ "http://hl7.org/fhir/us/qicore/StructureDefinition/qicore-medicationrequest" ]
      },
      "status": "active",
      "intent": "order",
      "doNotPerform": false,
      "medicationCodeableConcept": {
        "coding": [ {
          "system": "http://www.nlm.nih.gov/research/umls/rxnorm",
          "code": "312836",
          "display": "rivastigmine 6 MG Oral Capsule"
        } ]
      },
      "subject": {
        "reference": "Patient/8ffd1c24-67a9-4991-86cb-3378a45ffd6e"
      },
      "authoredOn": "2026-12-30T00:00:00.000+00:00",
      "requester": {
        "reference": "Practitioner/example"
      },
      "dispenseRequest": {
        "expectedSupplyDuration": {
          "value": 90,
          "system": "http://unitsofmeasure.org",
          "code": "days"
        }
      }
    },
    "request": {
      "method": "PUT",
      "url": "MedicationRequest/23ca1574-9ff5-41ef-bc3a-0d61f58f0f54"
    }
  }, {
    "fullUrl": "https://madie.cms.gov/Encounter/19cb15a2-db36-441d-a463-c2d118cb651c",
    "resource": {
      "resourceType": "Encounter",
      "id": "19cb15a2-db36-441d-a463-c2d118cb651c",
      "meta": {
        "profile": [ "http://hl7.org/fhir/us/qicore/StructureDefinition/qicore-encounter" ]
      },
      "status": "finished",
      "class": {
        "system": "http://terminology.hl7.org/CodeSystem/v3-ActCode",
        "code": "AMB",
        "display": "ambulatory"
      },
      "type": [ {
        "coding": [ {
          "system": "http://www.ama-assn.org/go/cpt",
          "code": "99509",
          "display": "Home visit for assistance with activities of daily living and personal care"
        } ]
      } ],
      "subject": {
        "reference": "Patient/8ffd1c24-67a9-4991-86cb-3378a45ffd6e"
      },
      "period": {
        "start": "2026-01-01T00:00:00.000+00:00",
        "end": "2026-01-02T00:00:00.000+00:00"
      }
    },
    "request": {
      "method": "PUT",
      "url": "Encounter/19cb15a2-db36-441d-a463-c2d118cb651c"
    }
  }, {
    "fullUrl": "https://madie.cms.gov/MeasureReport/be204a48-55c2-499b-bffb-f9b7922afd83",
    "resource": {
      "resourceType": "MeasureReport",
      "id": "be204a48-55c2-499b-bffb-f9b7922afd83",
      "meta": {
        "profile": [ "http://hl7.org/fhir/us/cqfmeasures/StructureDefinition/test-case-cqfm" ]
      },
      "contained": [ {
        "resourceType": "Parameters",
        "id": "d26ddcc5-c6e1-4367-ade6-40ab308e8ccf-parameters",
        "parameter": [ {
          "name": "subject",
          "valueString": "8ffd1c24-67a9-4991-86cb-3378a45ffd6e"
        } ]
      } ],
      "extension": [ {
        "url": "http://hl7.org/fhir/StructureDefinition/cqf-inputParameters",
        "valueReference": {
          "reference": "#d26ddcc5-c6e1-4367-ade6-40ab308e8ccf-parameters"
        }
      }, {
        "url": "http://hl7.org/fhir/us/cqfmeasures/StructureDefinition/cqfm-testCaseDescription",
        "valueMarkdown": "Frailty encounter overlaps the MP"
      } ],
      "modifierExtension": [ {
        "url": "http://hl7.org/fhir/us/cqfmeasures/StructureDefinition/cqfm-isTestCase",
        "valueBoolean": true
      } ],
      "status": "complete",
      "type": "individual",
      "measure": "https://madie.cms.gov/Measure/CMS131FHIRDiabetesEyeExam",
      "period": {
        "start": "2026-01-01",
        "end": "2026-12-31"
      },
      "group": [ {
        "id": "Group_1",
        "population": [ {
          "id": "InitialPopulation_1",
          "code": {
            "coding": [ {
              "system": "http://terminology.hl7.org/CodeSystem/measure-population",
              "code": "initial-population",
              "display": "Initial Population"
            } ]
          },
          "count": 1
        }, {
          "id": "Denominator_1",
          "code": {
            "coding": [ {
              "system": "http://terminology.hl7.org/CodeSystem/measure-population",
              "code": "denominator",
              "display": "Denominator"
            } ]
          },
          "count": 1
        }, {
          "id": "DenominatorExclusion_1",
          "code": {
            "coding": [ {
              "system": "http://terminology.hl7.org/CodeSystem/measure-population",
              "code": "denominator-exclusion",
              "display": "Denominator Exclusion"
            } ]
          },
          "count": 1
        }, {
          "id": "Numerator_1",
          "code": {
            "coding": [ {
              "system": "http://terminology.hl7.org/CodeSystem/measure-population",
              "code": "numerator",
              "display": "Numerator"
            } ]
          },
          "count": 0
        } ],
        "measureScore": {
          "value": 1.0
        }
      } ],
      "evaluatedResource": [ {
        "reference": "Patient/8ffd1c24-67a9-4991-86cb-3378a45ffd6e"
      }, {
        "reference": "Encounter/62a293cd-1585-4bdf-9cfe-8524aa78460b"
      }, {
        "reference": "Condition/44ac13d8-1a3d-4a17-81ee-503b06514e70"
      }, {
        "reference": "MedicationRequest/23ca1574-9ff5-41ef-bc3a-0d61f58f0f54"
      }, {
        "reference": "Encounter/19cb15a2-db36-441d-a463-c2d118cb651c"
      } ]
    },
    "request": {
      "method": "PUT",
      "url": "MeasureReport/be204a48-55c2-499b-bffb-f9b7922afd83"
    }
  } ]
}