{
  "resourceType": "Bundle",
  "id": "62d7354fc22c612899b40d6c1",
  "type": "transaction",
  "entry": [ {
    "fullUrl": "https://madie.cms.gov/Patient/1f16120b-56c9-4d72-8dd4-01d8a0175d77",
    "resource": {
      "resourceType": "Patient",
      "id": "1f16120b-56c9-4d72-8dd4-01d8a0175d77",
      "meta": {
        "profile": [ "http://hl7.org/fhir/us/qicore/StructureDefinition/qicore-patient" ]
      },
      "extension": [ {
        "url": "http://hl7.org/fhir/us/core/StructureDefinition/us-core-race",
        "extension": [ {
          "url": "ombCategory",
          "valueCoding": {
            "system": "urn:oid:2.16.840.1.113883.6.238",
            "code": "2106-3",
            "display": "White",
            "userSelected": true
          }
        }, {
          "url": "text",
          "valueString": "White"
        } ]
      }, {
        "url": "http://hl7.org/fhir/us/core/StructureDefinition/us-core-ethnicity",
        "extension": [ {
          "url": "ombCategory",
          "valueCoding": {
            "system": "urn:oid:2.16.840.1.113883.6.238",
            "code": "2186-5",
            "display": "Not Hispanic or Latino",
            "userSelected": true
          }
        }, {
          "url": "text",
          "valueString": "Not Hispanic or Latino"
        } ]
      } ],
      "identifier": [ {
        "type": {
          "coding": [ {
            "system": "http://terminology.hl7.org/CodeSystem/v2-0203",
            "code": "MR"
          } ]
        },
        "system": "https://bonnie-fhir.healthit.gov/",
        "value": "62d7354fc22c612899b40d6c1"
      } ],
      "name": [ {
        "family": "DENEXCEPPass",
        "given": [ "ElevatedDeclineFU" ]
      } ],
      "gender": "male",
      "birthDate": "2005-01-01"
    },
    "request": {
      "method": "PUT",
      "url": "Patient/1f16120b-56c9-4d72-8dd4-01d8a0175d77"
    }
  }, {
    "fullUrl": "https://madie.cms.gov/Encounter/5111116c-651b-4089-8a86-3d3d87f221b5",
    "resource": {
      "resourceType": "Encounter",
      "id": "5111116c-651b-4089-8a86-3d3d87f221b5",
      "meta": {
        "profile": [ "http://hl7.org/fhir/us/qicore/StructureDefinition/qicore-encounter" ]
      },
      "status": "finished",
      "class": {
        "system": "http://terminology.hl7.org/CodeSystem/v3-ActCode",
        "code": "AMB",
        "display": "ambulatory"
      },
      "type": [ {
        "coding": [ {
          "system": "http://snomed.info/sct",
          "version": "2022-03",
          "code": "406547006",
          "display": "Urgent follow-up (procedure)",
          "userSelected": true
        } ]
      } ],
      "subject": {
        "reference": "Patient/1f16120b-56c9-4d72-8dd4-01d8a0175d77"
      },
      "period": {
        "start": "2026-01-01T08:00:00.000+00:00",
        "end": "2026-01-01T08:30:00.000+00:00"
      }
    },
    "request": {
      "method": "PUT",
      "url": "Encounter/5111116c-651b-4089-8a86-3d3d87f221b5"
    }
  }, {
    "fullUrl": "https://madie.cms.gov/Observation/efb50f71-756c-405c-95e3-b9fc2a0cc355",
    "resource": {
      "resourceType": "Observation",
      "id": "efb50f71-756c-405c-95e3-b9fc2a0cc355",
      "meta": {
        "profile": [ "http://hl7.org/fhir/StructureDefinition/bp" ]
      },
      "status": "amended",
      "category": [ {
        "coding": [ {
          "system": "http://terminology.hl7.org/CodeSystem/observation-category",
          "code": "vital-signs",
          "display": "Vital Signs"
        } ],
        "text": "Vital Signs"
      } ],
      "code": {
        "coding": [ {
          "system": "http://loinc.org",
          "code": "85354-9",
          "display": "Blood pressure panel"
        } ]
      },
      "subject": {
        "reference": "Patient/1f16120b-56c9-4d72-8dd4-01d8a0175d77"
      },
      "effectiveDateTime": "2026-01-01T08:05:00.000Z",
      "component": [ {
        "code": {
          "coding": [ {
            "system": "http://loinc.org",
            "code": "8480-6",
            "display": "Systolic blood pressure"
          } ]
        },
        "valueQuantity": {
          "value": 120,
          "unit": "mmHg",
          "system": "http://unitsofmeasure.org",
          "code": "mm[Hg]"
        }
      }, {
        "code": {
          "coding": [ {
            "system": "http://loinc.org",
            "code": "8462-4",
            "display": "Diastolic blood pressure"
          } ]
        },
        "valueQuantity": {
          "value": 79,
          "unit": "mmHg",
          "system": "http://unitsofmeasure.org",
          "code": "mm[Hg]"
        }
      } ]
    },
    "request": {
      "method": "PUT",
      "url": "Observation/efb50f71-756c-405c-95e3-b9fc2a0cc355"
    }
  }, {
    "fullUrl": "https://madie.cms.gov/ServiceRequest/27705b33-263c-46de-941c-a41a0260bb33",
    "resource": {
      "resourceType": "ServiceRequest",
      "id": "27705b33-263c-46de-941c-a41a0260bb33",
      "meta": {
        "profile": [ "http://hl7.org/fhir/us/qicore/StructureDefinition/qicore-servicenotrequested" ]
      },
      "extension": [ {
        "url": "http://hl7.org/fhir/us/qicore/StructureDefinition/qicore-doNotPerformReason",
        "valueCodeableConcept": {
          "coding": [ {
            "system": "http://snomed.info/sct",
            "code": "407563006",
            "display": "Treatment not tolerated (situation)",
            "userSelected": true
          } ]
        }
      } ],
      "status": "completed",
      "intent": "order",
      "doNotPerform": true,
      "code": {
        "coding": [ {
          "system": "http://snomed.info/sct",
          "code": "308470006",
          "display": "Referral to general physician (procedure)",
          "userSelected": true
        } ]
      },
      "subject": {
        "reference": "Patient/1f16120b-56c9-4d72-8dd4-01d8a0175d77"
      },
      "authoredOn": "2026-01-01T08:20:00.000+00:00"
    },
    "request": {
      "method": "PUT",
      "url": "ServiceRequest/27705b33-263c-46de-941c-a41a0260bb33"
    }
  }, {
    "fullUrl": "https://madie.cms.gov/Coverage/2cf67d91-2048-44c8-8fbe-0276c3e334ae",
    "resource": {
      "resourceType": "Coverage",
      "id": "2cf67d91-2048-44c8-8fbe-0276c3e334ae",
      "meta": {
        "profile": [ "http://hl7.org/fhir/us/qicore/StructureDefinition/qicore-coverage" ]
      },
      "status": "active",
      "beneficiary": {
        "reference": "Patient/1f16120b-56c9-4d72-8dd4-01d8a0175d77"
      },
      "payor": [ {
        "reference": "Organization/2db60864-c1b4-41de-90f7-76054bb33220"
      } ]
    },
    "request": {
      "method": "PUT",
      "url": "Coverage/2cf67d91-2048-44c8-8fbe-0276c3e334ae"
    }
  }, {
    "fullUrl": "https://madie.cms.gov/Organization/2db60864-c1b4-41de-90f7-76054bb33220",
    "resource": {
      "resourceType": "Organization",
      "id": "2db60864-c1b4-41de-90f7-76054bb33220",
      "meta": {
        "profile": [ "http://hl7.org/fhir/us/qicore/StructureDefinition/qicore-organization" ]
      },
      "identifier": [ {
        "use": "temp",
        "system": "urn:oid:2.16.840.1.113883.4.4",
        "value": "21-3259825"
      } ],
      "active": true,
      "type": [ {
        "coding": [ {
          "system": "http://terminology.hl7.org/CodeSystem/organization-type",
          "code": "pay",
          "display": "Payer"
        } ]
      } ],
      "name": "Blue Cross Blue Shield of Texas",
      "telecom": [ {
        "system": "phone",
        "value": "(+1) 972-766-6900"
      } ],
      "address": [ {
        "use": "billing",
        "type": "postal",
        "line": [ "P.O. Box 660044" ],
        "city": "Dallas",
        "state": "TX",
        "postalCode": "75266-0044",
        "country": "USA"
      } ]
    },
    "request": {
      "method": "PUT",
      "url": "Organization/2db60864-c1b4-41de-90f7-76054bb33220"
    }
  }, {
    "fullUrl": "https://madie.cms.gov/Practitioner/01b257cd-4e3e-409a-8799-bcf957778949",
    "resource": {
      "resourceType": "Practitioner",
      "id": "01b257cd-4e3e-409a-8799-bcf957778949",
      "meta": {
        "profile": [ "http://hl7.org/fhir/us/qicore/StructureDefinition/qicore-practitioner" ]
      },
      "identifier": [ {
        "system": "http://hl7.org/fhir/sid/us-npi",
        "value": "123456"
      } ],
      "name": [ {
        "family": "Evil",
        "prefix": [ "Dr" ]
      } ]
    },
    "request": {
      "method": "PUT",
      "url": "Practitioner/01b257cd-4e3e-409a-8799-bcf957778949"
    }
  }, {
    "fullUrl": "https://madie.cms.gov/MeasureReport/74eb708f-33cb-4bd5-80c6-d0128663c367",
    "resource": {
      "resourceType": "MeasureReport",
      "id": "74eb708f-33cb-4bd5-80c6-d0128663c367",
      "meta": {
        "profile": [ "http://hl7.org/fhir/us/cqfmeasures/StructureDefinition/test-case-cqfm" ]
      },
      "contained": [ {
        "resourceType": "Parameters",
        "id": "5f10c38c-1a26-430f-b3f4-8e50d199b569-parameters",
        "parameter": [ {
          "name": "subject",
          "valueString": "1f16120b-56c9-4d72-8dd4-01d8a0175d77"
        } ]
      } ],
      "extension": [ {
        "url": "http://hl7.org/fhir/StructureDefinition/cqf-inputParameters",
        "valueReference": {
          "reference": "#5f10c38c-1a26-430f-b3f4-8e50d199b569-parameters"
        }
      }, {
        "url": "http://hl7.org/fhir/us/cqfmeasures/StructureDefinition/cqfm-testCaseDescription",
        "valueMarkdown": "Encounter first day of MP BP 120/79, declined referral to primary care/alternate"
      } ],
      "modifierExtension": [ {
        "url": "http://hl7.org/fhir/us/cqfmeasures/StructureDefinition/cqfm-isTestCase",
        "valueBoolean": true
      } ],
      "status": "complete",
      "type": "individual",
      "measure": "https://madie.cms.gov/Measure/CMS69FHIRPCSBMIScreenAndFollowUp",
      "period": {
        "start": "2026-01-01",
        "end": "2026-12-31"
      },
      "group": [ {
        "id": "Group_1",
        "population": [ {
          "id": "InitialPopulation_1",
          "code": {
            "coding": [ {
              "system": "http://terminology.hl7.org/CodeSystem/measure-population",
              "code": "initial-population",
              "display": "Initial Population"
            } ]
          },
          "count": 1
        }, {
          "id": "Denominator_1",
          "code": {
            "coding": [ {
              "system": "http://terminology.hl7.org/CodeSystem/measure-population",
              "code": "denominator",
              "display": "Denominator"
            } ]
          },
          "count": 1
        }, {
          "id": "DenominatorExclusion_1",
          "code": {
            "coding": [ {
              "system": "http://terminology.hl7.org/CodeSystem/measure-population",
              "code": "denominator-exclusion",
              "display": "Denominator Exclusion"
            } ]
          },
          "count": 0
        }, {
          "id": "Numerator_1",
          "code": {
            "coding": [ {
              "system": "http://terminology.hl7.org/CodeSystem/measure-population",
              "code": "numerator",
              "display": "Numerator"
            } ]
          },
          "count": 0
        }, {
          "id": "DenominatorException_1",
          "code": {
            "coding": [ {
              "system": "http://terminology.hl7.org/CodeSystem/measure-population",
              "code": "denominator-exception",
              "display": "Denominator Exception"
            } ]
          },
          "count": 1
        } ],
        "measureScore": {
          "value": 1.0
        }
      } ],
      "evaluatedResource": [ {
        "reference": "Patient/1f16120b-56c9-4d72-8dd4-01d8a0175d77"
      }, {
        "reference": "Encounter/5111116c-651b-4089-8a86-3d3d87f221b5"
      }, {
        "reference": "Observation/efb50f71-756c-405c-95e3-b9fc2a0cc355"
      }, {
        "reference": "ServiceRequest/27705b33-263c-46de-941c-a41a0260bb33"
      }, {
        "reference": "Coverage/2cf67d91-2048-44c8-8fbe-0276c3e334ae"
      }, {
        "reference": "Organization/2db60864-c1b4-41de-90f7-76054bb33220"
      }, {
        "reference": "Practitioner/01b257cd-4e3e-409a-8799-bcf957778949"
      } ]
    },
    "request": {
      "method": "PUT",
      "url": "MeasureReport/74eb708f-33cb-4bd5-80c6-d0128663c367"
    }
  } ]
}