{
  "resourceType": "Bundle",
  "id": "DENEX2Pass-DischargeToHomeInpatient",
  "type": "transaction",
  "entry": [ {
    "fullUrl": "https://madie.cms.gov/Patient/ed2fe491-3eb7-424a-bf95-5d44b6102cec",
    "resource": {
      "resourceType": "Patient",
      "id": "ed2fe491-3eb7-424a-bf95-5d44b6102cec",
      "meta": {
        "profile": [ "http://hl7.org/fhir/us/qicore/StructureDefinition/qicore-patient" ]
      },
      "extension": [ {
        "url": "http://hl7.org/fhir/us/core/StructureDefinition/us-core-race",
        "extension": [ {
          "url": "ombCategory",
          "valueCoding": {
            "system": "urn:oid:2.16.840.1.113883.6.238",
            "code": "2028-9",
            "display": "Asian"
          }
        }, {
          "url": "text",
          "valueString": "Asian"
        } ]
      }, {
        "url": "http://hl7.org/fhir/us/core/StructureDefinition/us-core-ethnicity",
        "extension": [ {
          "url": "ombCategory",
          "valueCoding": {
            "system": "urn:oid:2.16.840.1.113883.6.238",
            "code": "2135-2",
            "display": "Hispanic or Latino"
          }
        }, {
          "url": "text",
          "valueString": "Hispanic or Latino"
        } ]
      } ],
      "identifier": [ {
        "system": "http://hospital.smarthealthit.org",
        "value": "999999995"
      } ],
      "name": [ {
        "family": "Bertha",
        "given": [ "Betty" ]
      } ],
      "gender": "female",
      "birthDate": "2013-12-31"
    },
    "request": {
      "method": "PUT",
      "url": "Patient/ed2fe491-3eb7-424a-bf95-5d44b6102cec"
    }
  }, {
    "fullUrl": "https://madie.cms.gov/Encounter/86e20c25-653c-437e-b51c-cc315cd1701f",
    "resource": {
      "resourceType": "Encounter",
      "id": "86e20c25-653c-437e-b51c-cc315cd1701f",
      "meta": {
        "profile": [ "http://hl7.org/fhir/us/qicore/StructureDefinition/qicore-encounter" ]
      },
      "status": "finished",
      "class": {
        "system": "http://terminology.hl7.org/CodeSystem/v3-ActCode",
        "code": "AMB",
        "display": "ambulatory"
      },
      "type": [ {
        "coding": [ {
          "system": "http://www.ama-assn.org/go/cpt",
          "code": "99429",
          "display": "Unlisted preventive medicine service"
        } ]
      } ],
      "subject": {
        "reference": "Patient/ed2fe491-3eb7-424a-bf95-5d44b6102cec"
      },
      "period": {
        "start": "2026-01-01T01:00:00.000Z",
        "end": "2026-01-01T01:15:00.000Z"
      }
    },
    "request": {
      "method": "PUT",
      "url": "Encounter/86e20c25-653c-437e-b51c-cc315cd1701f"
    }
  }, {
    "fullUrl": "https://madie.cms.gov/Encounter/3de9d589-826b-424d-9067-6b49e64702b0",
    "resource": {
      "resourceType": "Encounter",
      "id": "3de9d589-826b-424d-9067-6b49e64702b0",
      "meta": {
        "profile": [ "http://hl7.org/fhir/us/qicore/StructureDefinition/qicore-encounter" ]
      },
      "status": "finished",
      "class": {
        "system": "http://terminology.hl7.org/CodeSystem/v3-ActCode",
        "code": "AMB",
        "display": "ambulatory"
      },
      "type": [ {
        "coding": [ {
          "system": "http://www.ama-assn.org/go/cpt",
          "code": "99024",
          "display": "Postoperative follow-up visit, normally included in the surgical package, to indicate that an evaluation and management service was performed during a postoperative period for a reason(s) related to the original procedure"
        } ]
      } ],
      "subject": {
        "reference": "Patient/ed2fe491-3eb7-424a-bf95-5d44b6102cec"
      },
      "period": {
        "start": "2026-01-01T01:00:00.000Z",
        "end": "2026-01-01T01:15:00.000Z"
      }
    },
    "request": {
      "method": "PUT",
      "url": "Encounter/3de9d589-826b-424d-9067-6b49e64702b0"
    }
  }, {
    "fullUrl": "https://madie.cms.gov/Observation/e4d7ec90-d517-41d7-abc3-e2861b95023b",
    "resource": {
      "resourceType": "Observation",
      "id": "e4d7ec90-d517-41d7-abc3-e2861b95023b",
      "meta": {
        "profile": [ "http://hl7.org/fhir/us/core/StructureDefinition/us-core-smokingstatus" ]
      },
      "status": "final",
      "category": [ {
        "coding": [ {
          "system": "http://terminology.hl7.org/CodeSystem/observation-category",
          "code": "survey",
          "display": "survey"
        } ],
        "text": "survey"
      } ],
      "code": {
        "coding": [ {
          "system": "http://loinc.org",
          "code": "39240-7",
          "display": "Tobacco use status CPHS"
        } ]
      },
      "subject": {
        "reference": "Patient/ed2fe491-3eb7-424a-bf95-5d44b6102cec"
      },
      "effectiveDateTime": "2026-01-01T01:00:00.000Z",
      "valueCodeableConcept": {
        "coding": [ {
          "system": "http://snomed.info/sct",
          "code": "110483000",
          "display": "Tobacco user (finding)"
        } ]
      }
    },
    "request": {
      "method": "PUT",
      "url": "Observation/e4d7ec90-d517-41d7-abc3-e2861b95023b"
    }
  }, {
    "fullUrl": "https://madie.cms.gov/Observation/6daf1b0c-d322-4790-9b2d-864035f2c451",
    "resource": {
      "resourceType": "Observation",
      "id": "6daf1b0c-d322-4790-9b2d-864035f2c451",
      "meta": {
        "profile": [ "http://hl7.org/fhir/us/qicore/StructureDefinition/qicore-observation-screening-assessment" ]
      },
      "status": "final",
      "category": [ {
        "coding": [ {
          "system": "http://terminology.hl7.org/CodeSystem/observation-category",
          "code": "survey"
        } ]
      } ],
      "code": {
        "coding": [ {
          "system": "http://loinc.org",
          "code": "45755-6",
          "display": "Hospice care [Minimum Data Set]"
        } ]
      },
      "subject": {
        "reference": "Patient/ed2fe491-3eb7-424a-bf95-5d44b6102cec"
      },
      "effectivePeriod": {
        "start": "2025-12-31T00:00:00.000Z",
        "end": "2026-01-01T00:00:00.000Z"
      },
      "valueCodeableConcept": {
        "coding": [ {
          "system": "http://snomed.info/sct",
          "code": "373066001",
          "display": "Yes (qualifier value)"
        } ]
      }
    },
    "request": {
      "method": "PUT",
      "url": "Observation/6daf1b0c-d322-4790-9b2d-864035f2c451"
    }
  }, {
    "fullUrl": "https://madie.cms.gov/MeasureReport/c3b727bd-4b91-4a3e-9580-c148f9aeaf7c",
    "resource": {
      "resourceType": "MeasureReport",
      "id": "c3b727bd-4b91-4a3e-9580-c148f9aeaf7c",
      "meta": {
        "profile": [ "http://hl7.org/fhir/us/cqfmeasures/StructureDefinition/test-case-cqfm" ]
      },
      "contained": [ {
        "resourceType": "Parameters",
        "id": "f9e57afa-6cc2-4191-96ad-1ac585772a15-parameters",
        "parameter": [ {
          "name": "subject",
          "valueString": "ed2fe491-3eb7-424a-bf95-5d44b6102cec"
        } ]
      } ],
      "extension": [ {
        "url": "http://hl7.org/fhir/StructureDefinition/cqf-inputParameters",
        "valueReference": {
          "reference": "#f9e57afa-6cc2-4191-96ad-1ac585772a15-parameters"
        }
      }, {
        "url": "http://hl7.org/fhir/us/cqfmeasures/StructureDefinition/cqfm-testCaseDescription",
        "valueMarkdown": "Hospice Observation - For meeting 100% coverage"
      } ],
      "modifierExtension": [ {
        "url": "http://hl7.org/fhir/us/cqfmeasures/StructureDefinition/cqfm-isTestCase",
        "valueBoolean": true
      } ],
      "status": "complete",
      "type": "individual",
      "measure": "https://madie.cms.gov/Measure/CMS138FHIRPreventiveTobaccoCessation",
      "period": {
        "start": "2026-01-01",
        "end": "2026-12-31"
      },
      "group": [ {
        "id": "Group_1",
        "population": [ {
          "id": "InitialPopulation_1",
          "code": {
            "coding": [ {
              "system": "http://terminology.hl7.org/CodeSystem/measure-population",
              "code": "initial-population",
              "display": "Initial Population"
            } ]
          },
          "count": 1
        }, {
          "id": "Denominator_1",
          "code": {
            "coding": [ {
              "system": "http://terminology.hl7.org/CodeSystem/measure-population",
              "code": "denominator",
              "display": "Denominator"
            } ]
          },
          "count": 1
        }, {
          "id": "DenominatorExclusion_1",
          "code": {
            "coding": [ {
              "system": "http://terminology.hl7.org/CodeSystem/measure-population",
              "code": "denominator-exclusion",
              "display": "Denominator Exclusion"
            } ]
          },
          "count": 1
        }, {
          "id": "Numerator_1",
          "code": {
            "coding": [ {
              "system": "http://terminology.hl7.org/CodeSystem/measure-population",
              "code": "numerator",
              "display": "Numerator"
            } ]
          },
          "count": 0
        } ],
        "measureScore": {
          "value": 1.0
        }
      }, {
        "id": "Group_2",
        "population": [ {
          "id": "InitialPopulation_2",
          "code": {
            "coding": [ {
              "system": "http://terminology.hl7.org/CodeSystem/measure-population",
              "code": "initial-population",
              "display": "Initial Population"
            } ]
          },
          "count": 1
        }, {
          "id": "Denominator_2",
          "code": {
            "coding": [ {
              "system": "http://terminology.hl7.org/CodeSystem/measure-population",
              "code": "denominator",
              "display": "Denominator"
            } ]
          },
          "count": 1
        }, {
          "id": "DenominatorExclusion_2",
          "code": {
            "coding": [ {
              "system": "http://terminology.hl7.org/CodeSystem/measure-population",
              "code": "denominator-exclusion",
              "display": "Denominator Exclusion"
            } ]
          },
          "count": 1
        }, {
          "id": "Numerator_2",
          "code": {
            "coding": [ {
              "system": "http://terminology.hl7.org/CodeSystem/measure-population",
              "code": "numerator",
              "display": "Numerator"
            } ]
          },
          "count": 0
        } ],
        "measureScore": {
          "value": 1.0
        }
      }, {
        "id": "Group_3",
        "population": [ {
          "id": "InitialPopulation_3",
          "code": {
            "coding": [ {
              "system": "http://terminology.hl7.org/CodeSystem/measure-population",
              "code": "initial-population",
              "display": "Initial Population"
            } ]
          },
          "count": 1
        }, {
          "id": "Denominator_3",
          "code": {
            "coding": [ {
              "system": "http://terminology.hl7.org/CodeSystem/measure-population",
              "code": "denominator",
              "display": "Denominator"
            } ]
          },
          "count": 1
        }, {
          "id": "DenominatorExclusion_3",
          "code": {
            "coding": [ {
              "system": "http://terminology.hl7.org/CodeSystem/measure-population",
              "code": "denominator-exclusion",
              "display": "Denominator Exclusion"
            } ]
          },
          "count": 1
        }, {
          "id": "Numerator_3",
          "code": {
            "coding": [ {
              "system": "http://terminology.hl7.org/CodeSystem/measure-population",
              "code": "numerator",
              "display": "Numerator"
            } ]
          },
          "count": 0
        } ],
        "measureScore": {
          "value": 1.0
        }
      } ],
      "evaluatedResource": [ {
        "reference": "Patient/ed2fe491-3eb7-424a-bf95-5d44b6102cec"
      }, {
        "reference": "Encounter/86e20c25-653c-437e-b51c-cc315cd1701f"
      }, {
        "reference": "Encounter/3de9d589-826b-424d-9067-6b49e64702b0"
      }, {
        "reference": "Observation/e4d7ec90-d517-41d7-abc3-e2861b95023b"
      }, {
        "reference": "Observation/6daf1b0c-d322-4790-9b2d-864035f2c451"
      } ]
    },
    "request": {
      "method": "PUT",
      "url": "MeasureReport/c3b727bd-4b91-4a3e-9580-c148f9aeaf7c"
    }
  } ]
}