{
  "resourceType": "Bundle",
  "id": "60eda20e0edfe2d9c328006c",
  "type": "transaction",
  "entry": [ {
    "fullUrl": "https://madie.cms.gov/Patient/e48db8cc-afd4-47ea-846c-ee4f3794e5ea",
    "resource": {
      "resourceType": "Patient",
      "id": "e48db8cc-afd4-47ea-846c-ee4f3794e5ea",
      "meta": {
        "profile": [ "http://hl7.org/fhir/us/qicore/StructureDefinition/qicore-patient" ]
      },
      "extension": [ {
        "url": "http://hl7.org/fhir/us/core/StructureDefinition/us-core-race",
        "extension": [ {
          "url": "ombCategory",
          "valueCoding": {
            "system": "urn:oid:2.16.840.1.113883.6.238",
            "code": "2106-3",
            "display": "White",
            "userSelected": true
          }
        }, {
          "url": "text",
          "valueString": "White"
        } ]
      }, {
        "url": "http://hl7.org/fhir/us/core/StructureDefinition/us-core-ethnicity",
        "extension": [ {
          "url": "ombCategory",
          "valueCoding": {
            "system": "urn:oid:2.16.840.1.113883.6.238",
            "code": "2186-5",
            "display": "Not Hispanic or Latino",
            "userSelected": true
          }
        }, {
          "url": "text",
          "valueString": "Not Hispanic or Latino"
        } ]
      } ],
      "identifier": [ {
        "type": {
          "coding": [ {
            "system": "http://terminology.hl7.org/CodeSystem/v2-0203",
            "code": "MR"
          } ]
        },
        "system": "https://bonnie-fhir.healthit.gov/",
        "value": "60eda20e0edfe2d9c328006c"
      } ],
      "name": [ {
        "family": "IPPFail",
        "given": [ "AgeUnder15" ]
      } ],
      "gender": "male",
      "birthDate": "2016-01-02"
    },
    "request": {
      "method": "PUT",
      "url": "Patient/e48db8cc-afd4-47ea-846c-ee4f3794e5ea"
    }
  }, {
    "fullUrl": "https://madie.cms.gov/Encounter/c3653210-7b42-49da-9f09-666845685edc",
    "resource": {
      "resourceType": "Encounter",
      "id": "c3653210-7b42-49da-9f09-666845685edc",
      "meta": {
        "profile": [ "http://hl7.org/fhir/us/qicore/StructureDefinition/qicore-encounter" ]
      },
      "status": "finished",
      "class": {
        "system": "http://terminology.hl7.org/CodeSystem/v3-ActCode",
        "code": "AMB",
        "display": "ambulatory",
        "userSelected": true
      },
      "type": [ {
        "coding": [ {
          "system": "http://www.ama-assn.org/go/cpt",
          "version": "2021",
          "code": "99393",
          "display": "Periodic comprehensive preventive medicine reevaluation and management of an individual including an age and gender appropriate history, examination, counseling/anticipatory guidance/risk factor reduction interventions, and the ordering of laboratory/diagnostic procedures, established patient; late childhood (age 5 through 11 years)",
          "userSelected": true
        } ]
      } ],
      "subject": {
        "reference": "Patient/e48db8cc-afd4-47ea-846c-ee4f3794e5ea"
      },
      "period": {
        "start": "2026-11-21T08:00:00+00:00",
        "end": "2026-11-21T08:15:00+00:00"
      }
    },
    "request": {
      "method": "PUT",
      "url": "Encounter/c3653210-7b42-49da-9f09-666845685edc"
    }
  }, {
    "fullUrl": "https://madie.cms.gov/MeasureReport/bee7cf5d-7235-4bd2-be00-b3561de86a29",
    "resource": {
      "resourceType": "MeasureReport",
      "id": "bee7cf5d-7235-4bd2-be00-b3561de86a29",
      "meta": {
        "profile": [ "http://hl7.org/fhir/us/cqfmeasures/StructureDefinition/test-case-cqfm" ]
      },
      "contained": [ {
        "resourceType": "Parameters",
        "id": "0e36c863-c200-4c15-9535-0e552fffacfc-parameters",
        "parameter": [ {
          "name": "subject",
          "valueString": "e48db8cc-afd4-47ea-846c-ee4f3794e5ea"
        } ]
      } ],
      "extension": [ {
        "url": "http://hl7.org/fhir/StructureDefinition/cqf-inputParameters",
        "valueReference": {
          "reference": "#0e36c863-c200-4c15-9535-0e552fffacfc-parameters"
        }
      }, {
        "url": "http://hl7.org/fhir/us/cqfmeasures/StructureDefinition/cqfm-testCaseDescription",
        "valueMarkdown": "Patient too young, under 15 at start of MP, with qualifying encounter"
      } ],
      "modifierExtension": [ {
        "url": "http://hl7.org/fhir/us/cqfmeasures/StructureDefinition/cqfm-isTestCase",
        "valueBoolean": true
      } ],
      "status": "complete",
      "type": "individual",
      "measure": "https://madie.cms.gov/Measure/CMS349FHIRHIVScreening",
      "period": {
        "start": "2026-01-01",
        "end": "2026-12-31"
      },
      "group": [ {
        "id": "Group_1",
        "population": [ {
          "id": "InitialPopulation_1",
          "code": {
            "coding": [ {
              "system": "http://terminology.hl7.org/CodeSystem/measure-population",
              "code": "initial-population",
              "display": "Initial Population"
            } ]
          },
          "count": 0
        }, {
          "id": "Denominator_1",
          "code": {
            "coding": [ {
              "system": "http://terminology.hl7.org/CodeSystem/measure-population",
              "code": "denominator",
              "display": "Denominator"
            } ]
          },
          "count": 0
        }, {
          "id": "DenominatorExclusion_1",
          "code": {
            "coding": [ {
              "system": "http://terminology.hl7.org/CodeSystem/measure-population",
              "code": "denominator-exclusion",
              "display": "Denominator Exclusion"
            } ]
          },
          "count": 0
        }, {
          "id": "Numerator_1",
          "code": {
            "coding": [ {
              "system": "http://terminology.hl7.org/CodeSystem/measure-population",
              "code": "numerator",
              "display": "Numerator"
            } ]
          },
          "count": 0
        }, {
          "id": "DenominatorException_1",
          "code": {
            "coding": [ {
              "system": "http://terminology.hl7.org/CodeSystem/measure-population",
              "code": "denominator-exception",
              "display": "Denominator Exception"
            } ]
          },
          "count": 0
        } ],
        "measureScore": {
          "value": 1.0
        }
      } ],
      "evaluatedResource": [ {
        "reference": "Patient/e48db8cc-afd4-47ea-846c-ee4f3794e5ea"
      }, {
        "reference": "Encounter/c3653210-7b42-49da-9f09-666845685edc"
      } ]
    },
    "request": {
      "method": "PUT",
      "url": "MeasureReport/bee7cf5d-7235-4bd2-be00-b3561de86a29"
    }
  } ]
}