{
  "resourceType": "Bundle",
  "id": "62aa507fc4be4c506d4a533a",
  "type": "transaction",
  "entry": [ {
    "fullUrl": "https://madie.cms.gov/Patient/cd81ff3a-3d2b-472e-bf0f-f951aee7d2c4",
    "resource": {
      "resourceType": "Patient",
      "id": "cd81ff3a-3d2b-472e-bf0f-f951aee7d2c4",
      "meta": {
        "profile": [ "http://hl7.org/fhir/us/qicore/StructureDefinition/qicore-patient" ]
      },
      "extension": [ {
        "url": "http://hl7.org/fhir/us/core/StructureDefinition/us-core-race",
        "extension": [ {
          "url": "ombCategory",
          "valueCoding": {
            "system": "urn:oid:2.16.840.1.113883.6.238",
            "code": "1002-5",
            "display": "American Indian or Alaska Native",
            "userSelected": true
          }
        }, {
          "url": "text",
          "valueString": "American Indian or Alaska Native"
        } ]
      }, {
        "url": "http://hl7.org/fhir/us/core/StructureDefinition/us-core-ethnicity",
        "extension": [ {
          "url": "ombCategory",
          "valueCoding": {
            "system": "urn:oid:2.16.840.1.113883.6.238",
            "code": "2186-5",
            "display": "Not Hispanic or Latino",
            "userSelected": true
          }
        }, {
          "url": "text",
          "valueString": "Not Hispanic or Latino"
        } ]
      } ],
      "identifier": [ {
        "type": {
          "coding": [ {
            "system": "http://terminology.hl7.org/CodeSystem/v2-0203",
            "code": "MR"
          } ]
        },
        "system": "https://bonnie-fhir.healthit.gov/",
        "value": "62aa507fc4be4c506d4a533a"
      } ],
      "name": [ {
        "family": "DENOMPass",
        "given": [ "Patient18DayOfEncounter" ]
      } ],
      "gender": "male",
      "birthDate": "2005-01-01"
    },
    "request": {
      "method": "PUT",
      "url": "Patient/cd81ff3a-3d2b-472e-bf0f-f951aee7d2c4"
    }
  }, {
    "fullUrl": "https://madie.cms.gov/Encounter/1e0d003c-d050-41c5-be7f-5a2460e11f6c",
    "resource": {
      "resourceType": "Encounter",
      "id": "1e0d003c-d050-41c5-be7f-5a2460e11f6c",
      "meta": {
        "profile": [ "http://hl7.org/fhir/us/qicore/StructureDefinition/qicore-encounter" ]
      },
      "status": "finished",
      "class": {
        "system": "http://terminology.hl7.org/CodeSystem/v3-ActCode",
        "code": "AMB",
        "display": "ambulatory"
      },
      "type": [ {
        "coding": [ {
          "system": "http://snomed.info/sct",
          "version": "2022-03",
          "code": "10197000",
          "display": "Psychiatric interview and evaluation (procedure)",
          "userSelected": true
        } ]
      } ],
      "subject": {
        "reference": "Patient/cd81ff3a-3d2b-472e-bf0f-f951aee7d2c4"
      },
      "period": {
        "start": "2027-01-01T00:00:00.000+00:00",
        "end": "2027-01-01T00:30:00.000+00:00"
      }
    },
    "request": {
      "method": "PUT",
      "url": "Encounter/1e0d003c-d050-41c5-be7f-5a2460e11f6c"
    }
  }, {
    "fullUrl": "https://madie.cms.gov/Coverage/bc9a91c8-75d4-4522-bf05-fa42aacdcbc1",
    "resource": {
      "resourceType": "Coverage",
      "id": "bc9a91c8-75d4-4522-bf05-fa42aacdcbc1",
      "meta": {
        "profile": [ "http://hl7.org/fhir/us/qicore/StructureDefinition/qicore-coverage" ]
      },
      "status": "active",
      "beneficiary": {
        "reference": "Patient/cd81ff3a-3d2b-472e-bf0f-f951aee7d2c4"
      },
      "payor": [ {
        "reference": "Organization/f1b6edf4-c0fb-4228-8c30-fa649ec6c7a1"
      } ]
    },
    "request": {
      "method": "PUT",
      "url": "Coverage/bc9a91c8-75d4-4522-bf05-fa42aacdcbc1"
    }
  }, {
    "fullUrl": "https://madie.cms.gov/Organization/f1b6edf4-c0fb-4228-8c30-fa649ec6c7a1",
    "resource": {
      "resourceType": "Organization",
      "id": "f1b6edf4-c0fb-4228-8c30-fa649ec6c7a1",
      "meta": {
        "profile": [ "http://hl7.org/fhir/us/qicore/StructureDefinition/qicore-organization" ]
      },
      "identifier": [ {
        "use": "temp",
        "system": "urn:oid:2.16.840.1.113883.4.4",
        "value": "21-3259825"
      } ],
      "active": true,
      "type": [ {
        "coding": [ {
          "system": "http://terminology.hl7.org/CodeSystem/organization-type",
          "code": "pay",
          "display": "Payer"
        } ]
      } ],
      "name": "Blue Cross Blue Shield of Texas",
      "telecom": [ {
        "system": "phone",
        "value": "(+1) 972-766-6900"
      } ],
      "address": [ {
        "use": "billing",
        "type": "postal",
        "line": [ "P.O. Box 660044" ],
        "city": "Dallas",
        "state": "TX",
        "postalCode": "75266-0044",
        "country": "USA"
      } ]
    },
    "request": {
      "method": "PUT",
      "url": "Organization/f1b6edf4-c0fb-4228-8c30-fa649ec6c7a1"
    }
  }, {
    "fullUrl": "https://madie.cms.gov/MeasureReport/309c29bb-7221-40f8-867a-b167e3a00269",
    "resource": {
      "resourceType": "MeasureReport",
      "id": "309c29bb-7221-40f8-867a-b167e3a00269",
      "meta": {
        "profile": [ "http://hl7.org/fhir/us/cqfmeasures/StructureDefinition/test-case-cqfm" ]
      },
      "contained": [ {
        "resourceType": "Parameters",
        "id": "20a9b7fc-e60b-493e-8a5c-5d1d1448ddcf-parameters",
        "parameter": [ {
          "name": "subject",
          "valueString": "cd81ff3a-3d2b-472e-bf0f-f951aee7d2c4"
        } ]
      } ],
      "extension": [ {
        "url": "http://hl7.org/fhir/StructureDefinition/cqf-inputParameters",
        "valueReference": {
          "reference": "#20a9b7fc-e60b-493e-8a5c-5d1d1448ddcf-parameters"
        }
      }, {
        "url": "http://hl7.org/fhir/us/cqfmeasures/StructureDefinition/cqfm-testCaseDescription",
        "valueMarkdown": "Ambulatory Encounter 1 day after MP"
      } ],
      "modifierExtension": [ {
        "url": "http://hl7.org/fhir/us/cqfmeasures/StructureDefinition/cqfm-isTestCase",
        "valueBoolean": true
      } ],
      "status": "complete",
      "type": "individual",
      "measure": "https://madie.cms.gov/Measure/CMS69FHIRPCSBMIScreenAndFollowUp",
      "period": {
        "start": "2026-01-01",
        "end": "2026-12-31"
      },
      "group": [ {
        "id": "Group_1",
        "population": [ {
          "id": "InitialPopulation_1",
          "code": {
            "coding": [ {
              "system": "http://terminology.hl7.org/CodeSystem/measure-population",
              "code": "initial-population",
              "display": "Initial Population"
            } ]
          },
          "count": 0
        }, {
          "id": "Denominator_1",
          "code": {
            "coding": [ {
              "system": "http://terminology.hl7.org/CodeSystem/measure-population",
              "code": "denominator",
              "display": "Denominator"
            } ]
          },
          "count": 0
        }, {
          "id": "DenominatorExclusion_1",
          "code": {
            "coding": [ {
              "system": "http://terminology.hl7.org/CodeSystem/measure-population",
              "code": "denominator-exclusion",
              "display": "Denominator Exclusion"
            } ]
          },
          "count": 0
        }, {
          "id": "Numerator_1",
          "code": {
            "coding": [ {
              "system": "http://terminology.hl7.org/CodeSystem/measure-population",
              "code": "numerator",
              "display": "Numerator"
            } ]
          },
          "count": 0
        }, {
          "id": "DenominatorException_1",
          "code": {
            "coding": [ {
              "system": "http://terminology.hl7.org/CodeSystem/measure-population",
              "code": "denominator-exception",
              "display": "Denominator Exception"
            } ]
          },
          "count": 0
        } ],
        "measureScore": {
          "value": 1.0
        }
      } ],
      "evaluatedResource": [ {
        "reference": "Patient/cd81ff3a-3d2b-472e-bf0f-f951aee7d2c4"
      }, {
        "reference": "Encounter/1e0d003c-d050-41c5-be7f-5a2460e11f6c"
      }, {
        "reference": "Coverage/bc9a91c8-75d4-4522-bf05-fa42aacdcbc1"
      }, {
        "reference": "Organization/f1b6edf4-c0fb-4228-8c30-fa649ec6c7a1"
      } ]
    },
    "request": {
      "method": "PUT",
      "url": "MeasureReport/309c29bb-7221-40f8-867a-b167e3a00269"
    }
  } ]
}