{
  "resourceType": "Bundle",
  "id": "NUMPass-Age30HPVTestDuringMP",
  "type": "transaction",
  "entry": [ {
    "fullUrl": "https://madie.cms.gov/Patient/6005d1fd-e9f5-414d-88d6-23087b4f3e94",
    "resource": {
      "resourceType": "Patient",
      "id": "6005d1fd-e9f5-414d-88d6-23087b4f3e94",
      "meta": {
        "profile": [ "http://hl7.org/fhir/us/qicore/StructureDefinition/qicore-patient" ]
      },
      "extension": [ {
        "url": "http://hl7.org/fhir/us/core/StructureDefinition/us-core-race",
        "extension": [ {
          "url": "ombCategory",
          "valueCoding": {
            "system": "urn:oid:2.16.840.1.113883.6.238",
            "code": "2028-9",
            "display": "Asian"
          }
        }, {
          "url": "text",
          "valueString": "Asian"
        } ]
      }, {
        "url": "http://hl7.org/fhir/us/core/StructureDefinition/us-core-ethnicity",
        "extension": [ {
          "url": "ombCategory",
          "valueCoding": {
            "system": "urn:oid:2.16.840.1.113883.6.238",
            "code": "2135-2",
            "display": "Hispanic or Latino"
          }
        }, {
          "url": "text",
          "valueString": "Hispanic or Latino"
        } ]
      } ],
      "identifier": [ {
        "system": "http://hospital.smarthealthit.org",
        "value": "999999995"
      } ],
      "name": [ {
        "family": "Bertha",
        "given": [ "Betty" ]
      } ],
      "gender": "female",
      "birthDate": "1996-12-31"
    },
    "request": {
      "method": "PUT",
      "url": "Patient/6005d1fd-e9f5-414d-88d6-23087b4f3e94"
    }
  }, {
    "fullUrl": "https://madie.cms.gov/Encounter/ab7068bc-cf10-47e4-884b-d96fc62cd698",
    "resource": {
      "resourceType": "Encounter",
      "id": "ab7068bc-cf10-47e4-884b-d96fc62cd698",
      "meta": {
        "profile": [ "http://hl7.org/fhir/us/qicore/StructureDefinition/qicore-encounter" ]
      },
      "status": "finished",
      "class": {
        "system": "http://terminology.hl7.org/CodeSystem/v3-ActCode",
        "code": "AMB",
        "display": "ambulatory"
      },
      "type": [ {
        "coding": [ {
          "system": "http://snomed.info/sct",
          "code": "185317003",
          "display": "Telephone encounter (procedure)"
        } ]
      } ],
      "subject": {
        "reference": "Patient/6005d1fd-e9f5-414d-88d6-23087b4f3e94"
      },
      "period": {
        "start": "2026-01-01T01:00:00.000+00:00",
        "end": "2026-01-01T01:15:00.000+00:00"
      }
    },
    "request": {
      "method": "PUT",
      "url": "Encounter/ab7068bc-cf10-47e4-884b-d96fc62cd698"
    }
  }, {
    "fullUrl": "https://madie.cms.gov/Observation/326a8635-9ee6-4462-823d-8f9406f71e7d",
    "resource": {
      "resourceType": "Observation",
      "id": "326a8635-9ee6-4462-823d-8f9406f71e7d",
      "meta": {
        "profile": [ "http://hl7.org/fhir/us/qicore/StructureDefinition/qicore-observation-lab" ]
      },
      "status": "final",
      "category": [ {
        "coding": [ {
          "system": "http://terminology.hl7.org/CodeSystem/observation-category",
          "code": "laboratory",
          "display": "laboratory"
        } ],
        "text": "laboratory"
      } ],
      "code": {
        "coding": [ {
          "system": "http://loinc.org",
          "code": "21440-3",
          "display": "Human papilloma virus 16+18+31+33+35+45+51+52+56 DNA [Presence] in Cervix by Probe"
        } ]
      },
      "subject": {
        "reference": "Patient/6005d1fd-e9f5-414d-88d6-23087b4f3e94"
      },
      "effectivePeriod": {
        "start": "2026-12-31T23:00:00.000+00:00",
        "end": "2026-12-31T23:59:00.000+00:00"
      },
      "valueInteger": 1
    },
    "request": {
      "method": "PUT",
      "url": "Observation/326a8635-9ee6-4462-823d-8f9406f71e7d"
    }
  }, {
    "fullUrl": "https://madie.cms.gov/MeasureReport/12da54a2-060e-4696-99a3-12299234b3ab",
    "resource": {
      "resourceType": "MeasureReport",
      "id": "12da54a2-060e-4696-99a3-12299234b3ab",
      "meta": {
        "profile": [ "http://hl7.org/fhir/us/cqfmeasures/StructureDefinition/test-case-cqfm" ]
      },
      "contained": [ {
        "resourceType": "Parameters",
        "id": "a793fa4a-6e3d-426d-8660-9185cf54f465-parameters",
        "parameter": [ {
          "name": "subject",
          "valueString": "6005d1fd-e9f5-414d-88d6-23087b4f3e94"
        } ]
      } ],
      "extension": [ {
        "url": "http://hl7.org/fhir/StructureDefinition/cqf-inputParameters",
        "valueReference": {
          "reference": "#a793fa4a-6e3d-426d-8660-9185cf54f465-parameters"
        }
      }, {
        "url": "http://hl7.org/fhir/us/cqfmeasures/StructureDefinition/cqfm-testCaseDescription",
        "valueMarkdown": "Female 30 years old with HPV Test during MP"
      } ],
      "modifierExtension": [ {
        "url": "http://hl7.org/fhir/us/cqfmeasures/StructureDefinition/cqfm-isTestCase",
        "valueBoolean": true
      } ],
      "status": "complete",
      "type": "individual",
      "measure": "https://madie.cms.gov/Measure/CMS124FHIRCervicalCancerScreening",
      "period": {
        "start": "2026-01-01",
        "end": "2026-12-31"
      },
      "group": [ {
        "id": "Group_1",
        "population": [ {
          "id": "InitialPopulation_1",
          "code": {
            "coding": [ {
              "system": "http://terminology.hl7.org/CodeSystem/measure-population",
              "code": "initial-population",
              "display": "Initial Population"
            } ]
          },
          "count": 1
        }, {
          "id": "Denominator_1",
          "code": {
            "coding": [ {
              "system": "http://terminology.hl7.org/CodeSystem/measure-population",
              "code": "denominator",
              "display": "Denominator"
            } ]
          },
          "count": 1
        }, {
          "id": "DenominatorExclusion_1",
          "code": {
            "coding": [ {
              "system": "http://terminology.hl7.org/CodeSystem/measure-population",
              "code": "denominator-exclusion",
              "display": "Denominator Exclusion"
            } ]
          },
          "count": 0
        }, {
          "id": "Numerator_1",
          "code": {
            "coding": [ {
              "system": "http://terminology.hl7.org/CodeSystem/measure-population",
              "code": "numerator",
              "display": "Numerator"
            } ]
          },
          "count": 1
        } ],
        "measureScore": {
          "value": 1.0
        }
      } ],
      "evaluatedResource": [ {
        "reference": "Patient/6005d1fd-e9f5-414d-88d6-23087b4f3e94"
      }, {
        "reference": "Encounter/ab7068bc-cf10-47e4-884b-d96fc62cd698"
      }, {
        "reference": "Observation/326a8635-9ee6-4462-823d-8f9406f71e7d"
      } ]
    },
    "request": {
      "method": "PUT",
      "url": "MeasureReport/12da54a2-060e-4696-99a3-12299234b3ab"
    }
  } ]
}