{
  "resourceType": "Bundle",
  "id": "62df1ffb0056b6e23ec6759d",
  "type": "transaction",
  "entry": [ {
    "fullUrl": "https://madie.cms.gov/Patient/1ba2fc33-1a1b-416b-bb3c-79ba5d0d3359",
    "resource": {
      "resourceType": "Patient",
      "id": "1ba2fc33-1a1b-416b-bb3c-79ba5d0d3359",
      "meta": {
        "profile": [ "http://hl7.org/fhir/us/qicore/StructureDefinition/qicore-patient" ]
      },
      "extension": [ {
        "url": "http://hl7.org/fhir/us/core/StructureDefinition/us-core-race",
        "extension": [ {
          "url": "ombCategory",
          "valueCoding": {
            "system": "urn:oid:2.16.840.1.113883.6.238",
            "code": "2106-3",
            "display": "White",
            "userSelected": true
          }
        }, {
          "url": "text",
          "valueString": "White"
        } ]
      }, {
        "url": "http://hl7.org/fhir/us/core/StructureDefinition/us-core-ethnicity",
        "extension": [ {
          "url": "ombCategory",
          "valueCoding": {
            "system": "urn:oid:2.16.840.1.113883.6.238",
            "code": "2186-5",
            "display": "Not Hispanic or Latino",
            "userSelected": true
          }
        }, {
          "url": "text",
          "valueString": "Not Hispanic or Latino"
        } ]
      } ],
      "identifier": [ {
        "type": {
          "coding": [ {
            "system": "http://terminology.hl7.org/CodeSystem/v2-0203",
            "code": "MR"
          } ]
        },
        "system": "https://bonnie-fhir.healthit.gov/",
        "value": "62df1ffb0056b6e23ec6759d"
      } ],
      "name": [ {
        "family": "NUMERFail",
        "given": [ "HighBMIAndInterventionOrderedFollowUpConditionEndsB4InterventionOrder" ]
      } ],
      "gender": "unknown",
      "birthDate": "1957-11-07"
    },
    "request": {
      "method": "PUT",
      "url": "Patient/1ba2fc33-1a1b-416b-bb3c-79ba5d0d3359"
    }
  }, {
    "fullUrl": "https://madie.cms.gov/Encounter/2ac7e2ad-1ff6-4a96-b2ed-adbafbd7faaf",
    "resource": {
      "resourceType": "Encounter",
      "id": "2ac7e2ad-1ff6-4a96-b2ed-adbafbd7faaf",
      "meta": {
        "profile": [ "http://hl7.org/fhir/us/qicore/StructureDefinition/qicore-encounter" ]
      },
      "status": "finished",
      "class": {
        "system": "http://terminology.hl7.org/CodeSystem/v3-ActCode",
        "code": "AMB",
        "display": "ambulatory"
      },
      "type": [ {
        "coding": [ {
          "system": "http://snomed.info/sct",
          "version": "2022-03",
          "code": "10197000",
          "display": "Psychiatric interview and evaluation (procedure)",
          "userSelected": true
        } ]
      } ],
      "subject": {
        "reference": "Patient/1ba2fc33-1a1b-416b-bb3c-79ba5d0d3359"
      },
      "period": {
        "start": "2026-01-01T00:00:00.000+00:00",
        "end": "2026-01-01T00:30:00.000+00:00"
      }
    },
    "request": {
      "method": "PUT",
      "url": "Encounter/2ac7e2ad-1ff6-4a96-b2ed-adbafbd7faaf"
    }
  }, {
    "fullUrl": "https://madie.cms.gov/Observation/8916ad5c-0af6-4039-a775-a8716504fb84",
    "resource": {
      "resourceType": "Observation",
      "id": "8916ad5c-0af6-4039-a775-a8716504fb84",
      "meta": {
        "profile": [ "http://hl7.org/fhir/us/core/StructureDefinition/us-core-bmi" ]
      },
      "status": "final",
      "category": [ {
        "coding": [ {
          "system": "http://terminology.hl7.org/CodeSystem/observation-category",
          "code": "vital-signs",
          "display": "Vital Signs"
        } ]
      } ],
      "code": {
        "coding": [ {
          "system": "http://loinc.org",
          "code": "39156-5",
          "display": "Body mass index (BMI) [Ratio]",
          "userSelected": true
        } ]
      },
      "subject": {
        "reference": "Patient/1ba2fc33-1a1b-416b-bb3c-79ba5d0d3359"
      },
      "effectiveDateTime": "2026-01-01T08:05:00.000+00:00",
      "valueQuantity": {
        "value": 17,
        "unit": "kg/m2",
        "system": "http://unitsofmeasure.org",
        "code": "kg/m2"
      }
    },
    "request": {
      "method": "PUT",
      "url": "Observation/8916ad5c-0af6-4039-a775-a8716504fb84"
    }
  }, {
    "fullUrl": "https://madie.cms.gov/Condition/e7c9e7b6-7bc1-4867-abb5-792737175346",
    "resource": {
      "resourceType": "Condition",
      "id": "e7c9e7b6-7bc1-4867-abb5-792737175346",
      "meta": {
        "profile": [ "http://hl7.org/fhir/us/qicore/StructureDefinition/qicore-condition-encounter-diagnosis" ]
      },
      "clinicalStatus": {
        "coding": [ {
          "system": "http://terminology.hl7.org/CodeSystem/condition-clinical",
          "code": "inactive",
          "display": "inactive",
          "userSelected": true
        } ]
      },
      "category": [ {
        "coding": [ {
          "system": "http://terminology.hl7.org/CodeSystem/condition-category",
          "code": "encounter-diagnosis",
          "display": "Encounter Diagnosis"
        }, {
          "system": "http://snomed.info/sct",
          "code": "439401001",
          "display": "Diagnosis"
        } ]
      } ],
      "code": {
        "coding": [ {
          "system": "http://snomed.info/sct",
          "version": "2022-03",
          "code": "162863004",
          "display": "Body mass index 25-29 - overweight (finding)",
          "userSelected": true
        } ]
      },
      "subject": {
        "reference": "Patient/1ba2fc33-1a1b-416b-bb3c-79ba5d0d3359"
      },
      "onsetDateTime": "2025-01-01T08:00:00.000+00:00",
      "abatementDateTime": "2026-12-31T11:59:00.000+00:00"
    },
    "request": {
      "method": "PUT",
      "url": "Condition/e7c9e7b6-7bc1-4867-abb5-792737175346"
    }
  }, {
    "fullUrl": "https://madie.cms.gov/ServiceRequest/616eb6ec-52b7-46bf-a5d4-410453b9f4bf",
    "resource": {
      "resourceType": "ServiceRequest",
      "id": "616eb6ec-52b7-46bf-a5d4-410453b9f4bf",
      "meta": {
        "profile": [ "http://hl7.org/fhir/us/qicore/StructureDefinition/qicore-servicerequest" ]
      },
      "status": "active",
      "intent": "order",
      "code": {
        "coding": [ {
          "system": "http://snomed.info/sct",
          "version": "2022-03",
          "code": "182922004",
          "display": "Dietary regime (regime/therapy)",
          "userSelected": true
        } ]
      },
      "subject": {
        "reference": "Patient/1ba2fc33-1a1b-416b-bb3c-79ba5d0d3359"
      },
      "authoredOn": "2026-01-01T00:30:00.000+00:00"
    },
    "request": {
      "method": "PUT",
      "url": "ServiceRequest/616eb6ec-52b7-46bf-a5d4-410453b9f4bf"
    }
  }, {
    "fullUrl": "https://madie.cms.gov/Coverage/011cfa14-1cf0-4c62-aa22-ca7fd0858945",
    "resource": {
      "resourceType": "Coverage",
      "id": "011cfa14-1cf0-4c62-aa22-ca7fd0858945",
      "meta": {
        "profile": [ "http://hl7.org/fhir/us/qicore/StructureDefinition/qicore-coverage" ]
      },
      "status": "active",
      "beneficiary": {
        "reference": "Patient/1ba2fc33-1a1b-416b-bb3c-79ba5d0d3359"
      },
      "payor": [ {
        "reference": "Organization/e7f80b35-a49d-4ba4-a572-f5ff79a00b27"
      } ]
    },
    "request": {
      "method": "PUT",
      "url": "Coverage/011cfa14-1cf0-4c62-aa22-ca7fd0858945"
    }
  }, {
    "fullUrl": "https://madie.cms.gov/Organization/e7f80b35-a49d-4ba4-a572-f5ff79a00b27",
    "resource": {
      "resourceType": "Organization",
      "id": "e7f80b35-a49d-4ba4-a572-f5ff79a00b27",
      "meta": {
        "profile": [ "http://hl7.org/fhir/us/qicore/StructureDefinition/qicore-organization" ]
      },
      "identifier": [ {
        "use": "temp",
        "system": "urn:oid:2.16.840.1.113883.4.4",
        "value": "21-3259825"
      } ],
      "active": true,
      "type": [ {
        "coding": [ {
          "system": "http://terminology.hl7.org/CodeSystem/organization-type",
          "code": "pay",
          "display": "Payer"
        } ]
      } ],
      "name": "Blue Cross Blue Shield of Texas",
      "telecom": [ {
        "system": "phone",
        "value": "(+1) 972-766-6900"
      } ],
      "address": [ {
        "use": "billing",
        "type": "postal",
        "line": [ "P.O. Box 660044" ],
        "city": "Dallas",
        "state": "TX",
        "postalCode": "75266-0044",
        "country": "USA"
      } ]
    },
    "request": {
      "method": "PUT",
      "url": "Organization/e7f80b35-a49d-4ba4-a572-f5ff79a00b27"
    }
  }, {
    "fullUrl": "https://madie.cms.gov/MeasureReport/d69dc759-8c8f-455a-ba57-f58f3326f94a",
    "resource": {
      "resourceType": "MeasureReport",
      "id": "d69dc759-8c8f-455a-ba57-f58f3326f94a",
      "meta": {
        "profile": [ "http://hl7.org/fhir/us/cqfmeasures/StructureDefinition/test-case-cqfm" ]
      },
      "contained": [ {
        "resourceType": "Parameters",
        "id": "bf973be4-b3ba-499e-80b5-1b421f5359b4-parameters",
        "parameter": [ {
          "name": "subject",
          "valueString": "1ba2fc33-1a1b-416b-bb3c-79ba5d0d3359"
        } ]
      } ],
      "extension": [ {
        "url": "http://hl7.org/fhir/StructureDefinition/cqf-inputParameters",
        "valueReference": {
          "reference": "#bf973be4-b3ba-499e-80b5-1b421f5359b4-parameters"
        }
      }, {
        "url": "http://hl7.org/fhir/us/cqfmeasures/StructureDefinition/cqfm-testCaseDescription",
        "valueMarkdown": "High BMI with intervention ordered - f/u for above nl BMI, condition overweight. Fails because condition dateTime ends before intervention order "
      } ],
      "modifierExtension": [ {
        "url": "http://hl7.org/fhir/us/cqfmeasures/StructureDefinition/cqfm-isTestCase",
        "valueBoolean": true
      } ],
      "status": "complete",
      "type": "individual",
      "measure": "https://madie.cms.gov/Measure/CMS69FHIRPCSBMIScreenAndFollowUp",
      "period": {
        "start": "2026-01-01",
        "end": "2026-12-31"
      },
      "group": [ {
        "id": "Group_1",
        "population": [ {
          "id": "InitialPopulation_1",
          "code": {
            "coding": [ {
              "system": "http://terminology.hl7.org/CodeSystem/measure-population",
              "code": "initial-population",
              "display": "Initial Population"
            } ]
          },
          "count": 1
        }, {
          "id": "Denominator_1",
          "code": {
            "coding": [ {
              "system": "http://terminology.hl7.org/CodeSystem/measure-population",
              "code": "denominator",
              "display": "Denominator"
            } ]
          },
          "count": 1
        }, {
          "id": "DenominatorExclusion_1",
          "code": {
            "coding": [ {
              "system": "http://terminology.hl7.org/CodeSystem/measure-population",
              "code": "denominator-exclusion",
              "display": "Denominator Exclusion"
            } ]
          },
          "count": 0
        }, {
          "id": "Numerator_1",
          "code": {
            "coding": [ {
              "system": "http://terminology.hl7.org/CodeSystem/measure-population",
              "code": "numerator",
              "display": "Numerator"
            } ]
          },
          "count": 0
        }, {
          "id": "DenominatorException_1",
          "code": {
            "coding": [ {
              "system": "http://terminology.hl7.org/CodeSystem/measure-population",
              "code": "denominator-exception",
              "display": "Denominator Exception"
            } ]
          },
          "count": 0
        } ],
        "measureScore": {
          "value": 1.0
        }
      } ],
      "evaluatedResource": [ {
        "reference": "Patient/1ba2fc33-1a1b-416b-bb3c-79ba5d0d3359"
      }, {
        "reference": "Encounter/2ac7e2ad-1ff6-4a96-b2ed-adbafbd7faaf"
      }, {
        "reference": "Observation/8916ad5c-0af6-4039-a775-a8716504fb84"
      }, {
        "reference": "Condition/e7c9e7b6-7bc1-4867-abb5-792737175346"
      }, {
        "reference": "ServiceRequest/616eb6ec-52b7-46bf-a5d4-410453b9f4bf"
      }, {
        "reference": "Coverage/011cfa14-1cf0-4c62-aa22-ca7fd0858945"
      }, {
        "reference": "Organization/e7f80b35-a49d-4ba4-a572-f5ff79a00b27"
      } ]
    },
    "request": {
      "method": "PUT",
      "url": "MeasureReport/d69dc759-8c8f-455a-ba57-f58f3326f94a"
    }
  } ]
}