{
  "resourceType": "Bundle",
  "id": "62fbe009bf5132f90ee35d30",
  "type": "transaction",
  "entry": [
    {
      "fullUrl": "https://madie.cms.gov/Patient/57858042-c2aa-49f4-b401-1f1fd9ab289a",
      "resource": {
        "resourceType": "Patient",
        "id": "57858042-c2aa-49f4-b401-1f1fd9ab289a",
        "meta": {
          "profile": [
            "http://hl7.org/fhir/us/qicore/StructureDefinition/qicore-patient"
          ]
        },
        "extension": [
          {
            "url": "http://hl7.org/fhir/us/core/StructureDefinition/us-core-race",
            "extension": [
              {
                "url": "ombCategory",
                "valueCoding": {
                  "system": "urn:oid:2.16.840.1.113883.6.238",
                  "code": "2054-5",
                  "display": "Black or African American",
                  "userSelected": true
                }
              },
              {
                "url": "text",
                "valueString": "Black or African American"
              }
            ]
          },
          {
            "url": "http://hl7.org/fhir/us/core/StructureDefinition/us-core-ethnicity",
            "extension": [
              {
                "url": "ombCategory",
                "valueCoding": {
                  "system": "urn:oid:2.16.840.1.113883.6.238",
                  "code": "2186-5",
                  "display": "Not Hispanic or Latino",
                  "userSelected": true
                }
              },
              {
                "url": "text",
                "valueString": "Not Hispanic or Latino"
              }
            ]
          }
        ],
        "identifier": [
          {
            "type": {
              "coding": [
                {
                  "system": "http://terminology.hl7.org/CodeSystem/v2-0203",
                  "code": "MR"
                }
              ]
            },
            "system": "https://bonnie-fhir.healthit.gov/",
            "value": "62fbe009bf5132f90ee35d30"
          }
        ],
        "name": [
          {
            "family": "DENEXPass",
            "given": ["DischargeToHomeHospiceCareDuringMP"]
          }
        ],
        "gender": "male",
        "birthDate": "1946-10-15"
      },
      "request": {
        "method": "PUT",
        "url": "Patient/57858042-c2aa-49f4-b401-1f1fd9ab289a"
      }
    },
    {
      "fullUrl": "https://madie.cms.gov/Encounter/0a173323-bafa-426e-9d6e-d8f11c0bb87e",
      "resource": {
        "resourceType": "Encounter",
        "id": "0a173323-bafa-426e-9d6e-d8f11c0bb87e",
        "meta": {
          "profile": [
            "http://hl7.org/fhir/us/qicore/StructureDefinition/qicore-encounter"
          ]
        },
        "status": "finished",
        "class": {
          "system": "http://terminology.hl7.org/CodeSystem/v3-ActCode",
          "code": "AMB",
          "display": "ambulatory"
        },
        "type": [
          {
            "coding": [
              {
                "system": "http://snomed.info/sct",
                "version": "2022-03",
                "code": "10197000",
                "display": "Psychiatric interview and evaluation (procedure)",
                "userSelected": true
              }
            ]
          }
        ],
        "subject": {
          "reference": "Patient/57858042-c2aa-49f4-b401-1f1fd9ab289a"
        },
        "period": {
          "start": "2026-12-31T23:30:00.000+00:00",
          "end": "2026-12-31T23:59:00.000+00:00"
        }
      },
      "request": {
        "method": "PUT",
        "url": "Encounter/0a173323-bafa-426e-9d6e-d8f11c0bb87e"
      }
    },
    {
      "fullUrl": "https://madie.cms.gov/Observation/e36c2052-9f92-40d6-b2ae-e7685b2a3da9",
      "resource": {
        "resourceType": "Observation",
        "id": "e36c2052-9f92-40d6-b2ae-e7685b2a3da9",
        "meta": {
          "profile": [
            "http://hl7.org/fhir/us/qicore/StructureDefinition/qicore-simple-observation"
          ]
        },
        "status": "corrected",
        "category": [
          {
            "coding": [
              {
                "system": "http://terminology.hl7.org/CodeSystem/observation-category",
                "code": "procedure",
                "display": "Procedure"
              }
            ]
          }
        ],
        "code": {
          "coding": [
            {
              "system": "http://loinc.org",
              "code": "39156-5",
              "display": "Body mass index (BMI) [Ratio]",
              "userSelected": true
            }
          ]
        },
        "subject": {
          "reference": "Patient/57858042-c2aa-49f4-b401-1f1fd9ab289a"
        },
        "effectiveDateTime": "2026-12-31T23:59:00.000+00:00",
        "valueQuantity": {
          "value": 25.0,
          "unit": "kg/m2",
          "system": "http://unitsofmeasure.org",
          "code": "kg/m2"
        }
      },
      "request": {
        "method": "PUT",
        "url": "Observation/e36c2052-9f92-40d6-b2ae-e7685b2a3da9"
      }
    },
    {
      "fullUrl": "https://madie.cms.gov/Procedure/eb3e97e6-3644-4d3b-8657-63e8a789ed1f",
      "resource": {
        "resourceType": "Procedure",
        "id": "eb3e97e6-3644-4d3b-8657-63e8a789ed1f",
        "meta": {
          "profile": [
            "http://hl7.org/fhir/us/qicore/StructureDefinition/qicore-procedure"
          ]
        },
        "extension": [
          {
            "url": "http://hl7.org/fhir/us/qicore/StructureDefinition/qicore-recorded",
            "valueDateTime": "2026-12-31T23:59:00.000+00:00"
          }
        ],
        "status": "completed",
        "code": {
          "coding": [
            {
              "system": "http://snomed.info/sct",
              "version": "2022-03",
              "code": "182922004",
              "display": "Dietary regime (regime/therapy)",
              "userSelected": true
            }
          ]
        },
        "subject": {
          "reference": "Patient/57858042-c2aa-49f4-b401-1f1fd9ab289a"
        },
        "performedDateTime": "2026-12-31T23:59:00.000+00:00",
        "reasonCode": [
          {
            "coding": [
              {
                "system": "http://hl7.org/fhir/sid/icd-10-cm",
                "code": "E66.01",
                "display": "Morbid (severe) obesity due to excess calories",
                "userSelected": true
              }
            ]
          }
        ]
      },
      "request": {
        "method": "PUT",
        "url": "Procedure/eb3e97e6-3644-4d3b-8657-63e8a789ed1f"
      }
    },
    {
      "fullUrl": "https://madie.cms.gov/Encounter/03d09a0b-08b5-4072-9a65-b3d14831b998",
      "resource": {
        "resourceType": "Encounter",
        "id": "03d09a0b-08b5-4072-9a65-b3d14831b998",
        "meta": {
          "profile": [
            "http://hl7.org/fhir/us/qicore/StructureDefinition/qicore-encounter"
          ]
        },
        "status": "finished",
        "class": {
          "system": "http://terminology.hl7.org/CodeSystem/v3-ActCode",
          "code": "AMB",
          "display": "ambulatory"
        },
        "type": [
          {
            "coding": [
              {
                "system": "http://snomed.info/sct",
                "version": "2022-03",
                "code": "183452005",
                "display": "Emergency hospital admission (procedure)",
                "userSelected": true
              }
            ]
          }
        ],
        "subject": {
          "reference": "Patient/57858042-c2aa-49f4-b401-1f1fd9ab289a"
        },
        "period": {
          "start": "2026-01-01T00:01:00.000+00:00",
          "end": "2026-01-02T00:59:00.000+00:00"
        },
        "hospitalization": {
          "dischargeDisposition": {
            "coding": [
              {
                "system": "http://snomed.info/sct",
                "code": "428361000124107",
                "display": "Discharge to home for hospice care (procedure)",
                "userSelected": true
              }
            ]
          }
        }
      },
      "request": {
        "method": "PUT",
        "url": "Encounter/03d09a0b-08b5-4072-9a65-b3d14831b998"
      }
    },
    {
      "fullUrl": "https://madie.cms.gov/Coverage/409e5308-a0bf-4680-a2e9-513b4993b033",
      "resource": {
        "resourceType": "Coverage",
        "id": "409e5308-a0bf-4680-a2e9-513b4993b033",
        "meta": {
          "profile": [
            "http://hl7.org/fhir/us/qicore/StructureDefinition/qicore-coverage"
          ]
        },
        "status": "active",
        "beneficiary": {
          "reference": "Patient/57858042-c2aa-49f4-b401-1f1fd9ab289a"
        },
        "payor": [
          {
            "reference": "Organization/970ccb67-ea55-4e9b-bfb6-bf2c4de4e768"
          }
        ]
      },
      "request": {
        "method": "PUT",
        "url": "Coverage/409e5308-a0bf-4680-a2e9-513b4993b033"
      }
    },
    {
      "fullUrl": "https://madie.cms.gov/Organization/970ccb67-ea55-4e9b-bfb6-bf2c4de4e768",
      "resource": {
        "resourceType": "Organization",
        "id": "970ccb67-ea55-4e9b-bfb6-bf2c4de4e768",
        "meta": {
          "profile": [
            "http://hl7.org/fhir/us/qicore/StructureDefinition/qicore-organization"
          ]
        },
        "identifier": [
          {
            "use": "temp",
            "system": "urn:oid:2.16.840.1.113883.4.4",
            "value": "21-3259825"
          }
        ],
        "active": true,
        "type": [
          {
            "coding": [
              {
                "system": "http://terminology.hl7.org/CodeSystem/organization-type",
                "code": "pay",
                "display": "Payer"
              }
            ]
          }
        ],
        "name": "Blue Cross Blue Shield of Texas",
        "telecom": [
          {
            "system": "phone",
            "value": "(+1) 972-766-6900"
          }
        ],
        "address": [
          {
            "use": "billing",
            "type": "postal",
            "line": ["P.O. Box 660044"],
            "city": "Dallas",
            "state": "TX",
            "postalCode": "75266-0044",
            "country": "USA"
          }
        ]
      },
      "request": {
        "method": "PUT",
        "url": "Organization/970ccb67-ea55-4e9b-bfb6-bf2c4de4e768"
      }
    },
    {
      "fullUrl": "https://madie.cms.gov/MeasureReport/9037e95b-379b-4dee-9b29-04b4e1e2a751",
      "resource": {
        "resourceType": "MeasureReport",
        "id": "9037e95b-379b-4dee-9b29-04b4e1e2a751",
        "meta": {
          "profile": [
            "http://hl7.org/fhir/us/cqfmeasures/StructureDefinition/test-case-cqfm"
          ]
        },
        "contained": [
          {
            "resourceType": "Parameters",
            "id": "375670db-ad46-472c-bc7c-d30f7895f007-parameters",
            "parameter": [
              {
                "name": "subject",
                "valueString": "57858042-c2aa-49f4-b401-1f1fd9ab289a"
              }
            ]
          }
        ],
        "extension": [
          {
            "url": "http://hl7.org/fhir/StructureDefinition/cqf-inputParameters",
            "valueReference": {
              "reference": "#375670db-ad46-472c-bc7c-d30f7895f007-parameters"
            }
          },
          {
            "url": "http://hl7.org/fhir/us/cqfmeasures/StructureDefinition/cqfm-testCaseDescription",
            "valueMarkdown": "1 clinic enc, last day and last 29 minutes of the year, BMI 25 kg/m2\n 1 hospital enc. for which the patient was discharged to home hospice. "
          }
        ],
        "modifierExtension": [
          {
            "url": "http://hl7.org/fhir/us/cqfmeasures/StructureDefinition/cqfm-isTestCase",
            "valueBoolean": true
          }
        ],
        "status": "complete",
        "type": "individual",
        "measure": "https://madie.cms.gov/Measure/CMS69FHIRPCSBMIScreenAndFollowUp",
        "period": {
          "start": "2026-01-01",
          "end": "2026-12-31"
        },
        "group": [
          {
            "id": "Group_1",
            "population": [
              {
                "id": "InitialPopulation_1",
                "code": {
                  "coding": [
                    {
                      "system": "http://terminology.hl7.org/CodeSystem/measure-population",
                      "code": "initial-population",
                      "display": "Initial Population"
                    }
                  ]
                },
                "count": 1
              },
              {
                "id": "Denominator_1",
                "code": {
                  "coding": [
                    {
                      "system": "http://terminology.hl7.org/CodeSystem/measure-population",
                      "code": "denominator",
                      "display": "Denominator"
                    }
                  ]
                },
                "count": 1
              },
              {
                "id": "DenominatorExclusion_1",
                "code": {
                  "coding": [
                    {
                      "system": "http://terminology.hl7.org/CodeSystem/measure-population",
                      "code": "denominator-exclusion",
                      "display": "Denominator Exclusion"
                    }
                  ]
                },
                "count": 1
              },
              {
                "id": "Numerator_1",
                "code": {
                  "coding": [
                    {
                      "system": "http://terminology.hl7.org/CodeSystem/measure-population",
                      "code": "numerator",
                      "display": "Numerator"
                    }
                  ]
                },
                "count": 0
              },
              {
                "id": "DenominatorException_1",
                "code": {
                  "coding": [
                    {
                      "system": "http://terminology.hl7.org/CodeSystem/measure-population",
                      "code": "denominator-exception",
                      "display": "Denominator Exception"
                    }
                  ]
                },
                "count": 0
              }
            ],
            "measureScore": {
              "value": 1.0
            }
          }
        ],
        "evaluatedResource": [
          {
            "reference": "Patient/57858042-c2aa-49f4-b401-1f1fd9ab289a"
          },
          {
            "reference": "Encounter/0a173323-bafa-426e-9d6e-d8f11c0bb87e"
          },
          {
            "reference": "Observation/e36c2052-9f92-40d6-b2ae-e7685b2a3da9"
          },
          {
            "reference": "Procedure/eb3e97e6-3644-4d3b-8657-63e8a789ed1f"
          },
          {
            "reference": "Encounter/03d09a0b-08b5-4072-9a65-b3d14831b998"
          },
          {
            "reference": "Coverage/409e5308-a0bf-4680-a2e9-513b4993b033"
          },
          {
            "reference": "Organization/970ccb67-ea55-4e9b-bfb6-bf2c4de4e768"
          }
        ]
      },
      "request": {
        "method": "PUT",
        "url": "MeasureReport/9037e95b-379b-4dee-9b29-04b4e1e2a751"
      }
    }
  ]
}
