{
  "resourceType": "Bundle",
  "id": "DENEXPass-FrailtySymptomOverlapsMP",
  "type": "transaction",
  "entry": [ {
    "fullUrl": "https://madie.cms.gov/Patient/f45a1cb0-d1a7-42cf-9cae-6ea6c7799085",
    "resource": {
      "resourceType": "Patient",
      "id": "f45a1cb0-d1a7-42cf-9cae-6ea6c7799085",
      "meta": {
        "profile": [ "http://hl7.org/fhir/us/qicore/StructureDefinition/qicore-patient" ]
      },
      "extension": [ {
        "url": "http://hl7.org/fhir/us/core/StructureDefinition/us-core-race",
        "extension": [ {
          "url": "ombCategory",
          "valueCoding": {
            "system": "urn:oid:2.16.840.1.113883.6.238",
            "code": "2028-9",
            "display": "Asian",
            "userSelected": true
          }
        }, {
          "url": "text",
          "valueString": "Asian"
        } ]
      }, {
        "url": "http://hl7.org/fhir/us/core/StructureDefinition/us-core-ethnicity",
        "extension": [ {
          "url": "ombCategory",
          "valueCoding": {
            "system": "urn:oid:2.16.840.1.113883.6.238",
            "code": "2135-2",
            "display": "Hispanic or Latino",
            "userSelected": true
          }
        }, {
          "url": "text",
          "valueString": "Hispanic or Latino"
        } ]
      } ],
      "identifier": [ {
        "type": {
          "coding": [ {
            "system": "http://terminology.hl7.org/CodeSystem/v2-0203",
            "code": "MR"
          } ]
        },
        "system": "http://hospital.smarthealthit.org",
        "value": "999999995"
      } ],
      "name": [ {
        "family": "Bertha",
        "given": [ "Betty" ]
      } ],
      "gender": "female",
      "birthDate": "1954-12-31"
    },
    "request": {
      "method": "PUT",
      "url": "Patient/f45a1cb0-d1a7-42cf-9cae-6ea6c7799085"
    }
  }, {
    "fullUrl": "https://madie.cms.gov/Encounter/43fb687e-93b4-447a-a8f0-404af654e84e",
    "resource": {
      "resourceType": "Encounter",
      "id": "43fb687e-93b4-447a-a8f0-404af654e84e",
      "meta": {
        "profile": [ "http://hl7.org/fhir/us/qicore/StructureDefinition/qicore-encounter" ]
      },
      "status": "finished",
      "class": {
        "system": "http://terminology.hl7.org/CodeSystem/v3-ActCode",
        "code": "AMB",
        "display": "ambulatory"
      },
      "type": [ {
        "coding": [ {
          "system": "http://snomed.info/sct",
          "code": "456201000124103",
          "display": "Medicare annual wellness visit (procedure)"
        } ]
      } ],
      "subject": {
        "reference": "Patient/f45a1cb0-d1a7-42cf-9cae-6ea6c7799085"
      },
      "period": {
        "start": "2026-01-01T00:00:00.000+00:00",
        "end": "2026-01-01T00:00:00.000+00:00"
      }
    },
    "request": {
      "method": "PUT",
      "url": "Encounter/43fb687e-93b4-447a-a8f0-404af654e84e"
    }
  }, {
    "fullUrl": "https://madie.cms.gov/Condition/25d0f91f-b85e-490b-a2ac-a654ea932b66",
    "resource": {
      "resourceType": "Condition",
      "id": "25d0f91f-b85e-490b-a2ac-a654ea932b66",
      "meta": {
        "profile": [ "http://hl7.org/fhir/us/qicore/StructureDefinition/qicore-condition-encounter-diagnosis" ]
      },
      "clinicalStatus": {
        "coding": [ {
          "system": "http://terminology.hl7.org/CodeSystem/condition-clinical",
          "code": "active"
        } ]
      },
      "category": [ {
        "coding": [ {
          "system": "http://terminology.hl7.org/CodeSystem/condition-category",
          "code": "problem-list-item",
          "display": "Problem List Item"
        } ]
      } ],
      "code": {
        "coding": [ {
          "system": "http://snomed.info/sct",
          "code": "102781000119107",
          "display": "Sensory neuropathy due to type 1 diabetes mellitus (disorder)"
        } ]
      },
      "subject": {
        "reference": "Patient/f45a1cb0-d1a7-42cf-9cae-6ea6c7799085"
      },
      "onsetDateTime": "2026-01-01T00:00:00.000+00:00"
    },
    "request": {
      "method": "PUT",
      "url": "Condition/25d0f91f-b85e-490b-a2ac-a654ea932b66"
    }
  }, {
    "fullUrl": "https://madie.cms.gov/MedicationRequest/6b3e3a9a-9745-4264-ba13-65b29e911244",
    "resource": {
      "resourceType": "MedicationRequest",
      "id": "6b3e3a9a-9745-4264-ba13-65b29e911244",
      "meta": {
        "profile": [ "http://hl7.org/fhir/us/qicore/StructureDefinition/qicore-medicationrequest" ]
      },
      "status": "active",
      "intent": "order",
      "doNotPerform": false,
      "medicationCodeableConcept": {
        "coding": [ {
          "system": "http://www.nlm.nih.gov/research/umls/rxnorm",
          "code": "312836",
          "display": "rivastigmine 6 MG Oral Capsule"
        } ]
      },
      "subject": {
        "reference": "Patient/f45a1cb0-d1a7-42cf-9cae-6ea6c7799085"
      },
      "authoredOn": "2026-12-30T00:00:00.000+00:00",
      "requester": {
        "reference": "Practitioner/example"
      },
      "dispenseRequest": {
        "expectedSupplyDuration": {
          "value": 90,
          "system": "http://unitsofmeasure.org",
          "code": "days"
        }
      }
    },
    "request": {
      "method": "PUT",
      "url": "MedicationRequest/6b3e3a9a-9745-4264-ba13-65b29e911244"
    }
  }, {
    "fullUrl": "https://madie.cms.gov/Observation/b5ee873f-b193-4fc7-af71-32ca70f8ff43",
    "resource": {
      "resourceType": "Observation",
      "id": "b5ee873f-b193-4fc7-af71-32ca70f8ff43",
      "meta": {
        "profile": [ "http://hl7.org/fhir/us/qicore/StructureDefinition/qicore-simple-observation" ]
      },
      "status": "final",
      "category": [ {
        "coding": [ {
          "system": "http://terminology.hl7.org/CodeSystem/observation-category",
          "code": "survey"
        } ]
      } ],
      "code": {
        "coding": [ {
          "system": "http://hl7.org/fhir/sid/icd-10-cm",
          "code": "R26.89",
          "display": "Other abnormalities of gait and mobility"
        } ]
      },
      "subject": {
        "reference": "Patient/f45a1cb0-d1a7-42cf-9cae-6ea6c7799085"
      },
      "effectivePeriod": {
        "start": "2026-01-01T00:00:00.000+00:00",
        "end": "2026-01-02T00:00:00.000+00:00"
      }
    },
    "request": {
      "method": "PUT",
      "url": "Observation/b5ee873f-b193-4fc7-af71-32ca70f8ff43"
    }
  }, {
    "fullUrl": "https://madie.cms.gov/MeasureReport/16c46503-599a-496a-86bf-e8a16b1847cd",
    "resource": {
      "resourceType": "MeasureReport",
      "id": "16c46503-599a-496a-86bf-e8a16b1847cd",
      "meta": {
        "profile": [ "http://hl7.org/fhir/us/cqfmeasures/StructureDefinition/test-case-cqfm" ]
      },
      "contained": [ {
        "resourceType": "Parameters",
        "id": "dacc0654-1087-4989-9c36-f7d184a29578-parameters",
        "parameter": [ {
          "name": "subject",
          "valueString": "f45a1cb0-d1a7-42cf-9cae-6ea6c7799085"
        } ]
      } ],
      "extension": [ {
        "url": "http://hl7.org/fhir/StructureDefinition/cqf-inputParameters",
        "valueReference": {
          "reference": "#dacc0654-1087-4989-9c36-f7d184a29578-parameters"
        }
      }, {
        "url": "http://hl7.org/fhir/us/cqfmeasures/StructureDefinition/cqfm-testCaseDescription",
        "valueMarkdown": "Frailty symptom overlaps the MP"
      } ],
      "modifierExtension": [ {
        "url": "http://hl7.org/fhir/us/cqfmeasures/StructureDefinition/cqfm-isTestCase",
        "valueBoolean": true
      } ],
      "status": "complete",
      "type": "individual",
      "measure": "https://madie.cms.gov/Measure/CMS131FHIRDiabetesEyeExam",
      "period": {
        "start": "2026-01-01",
        "end": "2026-12-31"
      },
      "group": [ {
        "id": "Group_1",
        "population": [ {
          "id": "InitialPopulation_1",
          "code": {
            "coding": [ {
              "system": "http://terminology.hl7.org/CodeSystem/measure-population",
              "code": "initial-population",
              "display": "Initial Population"
            } ]
          },
          "count": 1
        }, {
          "id": "Denominator_1",
          "code": {
            "coding": [ {
              "system": "http://terminology.hl7.org/CodeSystem/measure-population",
              "code": "denominator",
              "display": "Denominator"
            } ]
          },
          "count": 1
        }, {
          "id": "DenominatorExclusion_1",
          "code": {
            "coding": [ {
              "system": "http://terminology.hl7.org/CodeSystem/measure-population",
              "code": "denominator-exclusion",
              "display": "Denominator Exclusion"
            } ]
          },
          "count": 1
        }, {
          "id": "Numerator_1",
          "code": {
            "coding": [ {
              "system": "http://terminology.hl7.org/CodeSystem/measure-population",
              "code": "numerator",
              "display": "Numerator"
            } ]
          },
          "count": 0
        } ],
        "measureScore": {
          "value": 1.0
        }
      } ],
      "evaluatedResource": [ {
        "reference": "Patient/f45a1cb0-d1a7-42cf-9cae-6ea6c7799085"
      }, {
        "reference": "Encounter/43fb687e-93b4-447a-a8f0-404af654e84e"
      }, {
        "reference": "Condition/25d0f91f-b85e-490b-a2ac-a654ea932b66"
      }, {
        "reference": "MedicationRequest/6b3e3a9a-9745-4264-ba13-65b29e911244"
      }, {
        "reference": "Observation/b5ee873f-b193-4fc7-af71-32ca70f8ff43"
      } ]
    },
    "request": {
      "method": "PUT",
      "url": "MeasureReport/16c46503-599a-496a-86bf-e8a16b1847cd"
    }
  } ]
}