{
  "resourceType": "Bundle",
  "id": "DENEXPass-HospiceServiceRequestCompleted",
  "type": "transaction",
  "entry": [ {
    "fullUrl": "https://madie.cms.gov/Patient/828caebe-4bd7-4579-85c6-d6340a9f3240",
    "resource": {
      "resourceType": "Patient",
      "id": "828caebe-4bd7-4579-85c6-d6340a9f3240",
      "meta": {
        "profile": [ "http://hl7.org/fhir/us/qicore/StructureDefinition/qicore-patient" ]
      },
      "extension": [ {
        "url": "http://hl7.org/fhir/us/core/StructureDefinition/us-core-race",
        "extension": [ {
          "url": "ombCategory",
          "valueCoding": {
            "system": "urn:oid:2.16.840.1.113883.6.238",
            "code": "2028-9",
            "display": "Asian"
          }
        }, {
          "url": "text",
          "valueString": "Asian"
        } ]
      }, {
        "url": "http://hl7.org/fhir/us/core/StructureDefinition/us-core-ethnicity",
        "extension": [ {
          "url": "ombCategory",
          "valueCoding": {
            "system": "urn:oid:2.16.840.1.113883.6.238",
            "code": "2135-2",
            "display": "Hispanic or Latino"
          }
        }, {
          "url": "text",
          "valueString": "Hispanic or Latino"
        } ]
      } ],
      "identifier": [ {
        "system": "http://hospital.smarthealthit.org",
        "value": "999999995"
      } ],
      "name": [ {
        "family": "Bertha",
        "given": [ "Betty" ]
      } ],
      "gender": "female",
      "birthDate": "2013-12-31"
    },
    "request": {
      "method": "PUT",
      "url": "Patient/828caebe-4bd7-4579-85c6-d6340a9f3240"
    }
  }, {
    "fullUrl": "https://madie.cms.gov/Encounter/e28cf6c7-31ec-4ed9-84ce-e2092992cff5",
    "resource": {
      "resourceType": "Encounter",
      "id": "e28cf6c7-31ec-4ed9-84ce-e2092992cff5",
      "meta": {
        "profile": [ "http://hl7.org/fhir/us/qicore/StructureDefinition/qicore-encounter" ]
      },
      "status": "finished",
      "class": {
        "system": "http://terminology.hl7.org/CodeSystem/v3-ActCode",
        "code": "AMB",
        "display": "ambulatory"
      },
      "type": [ {
        "coding": [ {
          "system": "http://www.ama-assn.org/go/cpt",
          "code": "99429",
          "display": "Unlisted preventive medicine service"
        } ]
      } ],
      "subject": {
        "reference": "Patient/828caebe-4bd7-4579-85c6-d6340a9f3240"
      },
      "period": {
        "start": "2026-01-01T01:00:00.000Z",
        "end": "2026-01-01T01:15:00.000Z"
      }
    },
    "request": {
      "method": "PUT",
      "url": "Encounter/e28cf6c7-31ec-4ed9-84ce-e2092992cff5"
    }
  }, {
    "fullUrl": "https://madie.cms.gov/Encounter/9c7fdeb5-6f6e-4bdb-adf9-922b1131b791",
    "resource": {
      "resourceType": "Encounter",
      "id": "9c7fdeb5-6f6e-4bdb-adf9-922b1131b791",
      "meta": {
        "profile": [ "http://hl7.org/fhir/us/qicore/StructureDefinition/qicore-encounter" ]
      },
      "status": "finished",
      "class": {
        "system": "http://terminology.hl7.org/CodeSystem/v3-ActCode",
        "code": "AMB",
        "display": "ambulatory"
      },
      "type": [ {
        "coding": [ {
          "system": "http://www.ama-assn.org/go/cpt",
          "code": "99024",
          "display": "Postoperative follow-up visit, normally included in the surgical package, to indicate that an evaluation and management service was performed during a postoperative period for a reason(s) related to the original procedure"
        } ]
      } ],
      "subject": {
        "reference": "Patient/828caebe-4bd7-4579-85c6-d6340a9f3240"
      },
      "period": {
        "start": "2026-01-01T01:00:00.000Z",
        "end": "2026-01-01T01:15:00.000Z"
      }
    },
    "request": {
      "method": "PUT",
      "url": "Encounter/9c7fdeb5-6f6e-4bdb-adf9-922b1131b791"
    }
  }, {
    "fullUrl": "https://madie.cms.gov/Observation/97c0aa1a-61b9-4c06-9a20-e4d940da461b",
    "resource": {
      "resourceType": "Observation",
      "id": "97c0aa1a-61b9-4c06-9a20-e4d940da461b",
      "meta": {
        "profile": [ "http://hl7.org/fhir/us/core/StructureDefinition/us-core-smokingstatus" ]
      },
      "status": "final",
      "category": [ {
        "coding": [ {
          "system": "http://terminology.hl7.org/CodeSystem/observation-category",
          "code": "survey",
          "display": "survey"
        } ],
        "text": "survey"
      } ],
      "code": {
        "coding": [ {
          "system": "http://loinc.org",
          "code": "39240-7",
          "display": "Tobacco use status CPHS"
        } ]
      },
      "subject": {
        "reference": "Patient/828caebe-4bd7-4579-85c6-d6340a9f3240"
      },
      "effectiveDateTime": "2026-01-01T01:00:00.000Z",
      "valueCodeableConcept": {
        "coding": [ {
          "system": "http://snomed.info/sct",
          "code": "110483000",
          "display": "Tobacco user (finding)"
        } ]
      }
    },
    "request": {
      "method": "PUT",
      "url": "Observation/97c0aa1a-61b9-4c06-9a20-e4d940da461b"
    }
  }, {
    "fullUrl": "https://madie.cms.gov/ServiceRequest/b5f7aa9e-2854-4d72-b239-7ab572542919",
    "resource": {
      "resourceType": "ServiceRequest",
      "id": "b5f7aa9e-2854-4d72-b239-7ab572542919",
      "meta": {
        "profile": [ "http://hl7.org/fhir/us/qicore/StructureDefinition/qicore-servicerequest" ]
      },
      "status": "completed",
      "intent": "order",
      "category": [ {
        "coding": [ {
          "system": "http://snomed.info/sct",
          "code": "387713003",
          "display": "Surgical procedure"
        } ]
      } ],
      "priority": "routine",
      "code": {
        "coding": [ {
          "system": "http://snomed.info/sct",
          "code": "385763009",
          "display": "Hospice care (regime/therapy)"
        } ]
      },
      "subject": {
        "reference": "Patient/828caebe-4bd7-4579-85c6-d6340a9f3240"
      },
      "authoredOn": "2026-01-02T00:00:00.000Z",
      "performerType": {
        "coding": [ {
          "system": "http://snomed.info/sct",
          "code": "405279007",
          "display": "Attending physician (occupation)"
        } ]
      }
    },
    "request": {
      "method": "PUT",
      "url": "ServiceRequest/b5f7aa9e-2854-4d72-b239-7ab572542919"
    }
  }, {
    "fullUrl": "https://madie.cms.gov/MeasureReport/854cd37f-d7a9-4298-a926-7b68f3b05b4f",
    "resource": {
      "resourceType": "MeasureReport",
      "id": "854cd37f-d7a9-4298-a926-7b68f3b05b4f",
      "meta": {
        "profile": [ "http://hl7.org/fhir/us/cqfmeasures/StructureDefinition/test-case-cqfm" ]
      },
      "contained": [ {
        "resourceType": "Parameters",
        "id": "fa6db7f6-2e0a-4e49-bd3f-8efc09c05d20-parameters",
        "parameter": [ {
          "name": "subject",
          "valueString": "828caebe-4bd7-4579-85c6-d6340a9f3240"
        } ]
      } ],
      "extension": [ {
        "url": "http://hl7.org/fhir/StructureDefinition/cqf-inputParameters",
        "valueReference": {
          "reference": "#fa6db7f6-2e0a-4e49-bd3f-8efc09c05d20-parameters"
        }
      }, {
        "url": "http://hl7.org/fhir/us/cqfmeasures/StructureDefinition/cqfm-testCaseDescription",
        "valueMarkdown": "Hospice Service Request - For meeting 100% coverage"
      } ],
      "modifierExtension": [ {
        "url": "http://hl7.org/fhir/us/cqfmeasures/StructureDefinition/cqfm-isTestCase",
        "valueBoolean": true
      } ],
      "status": "complete",
      "type": "individual",
      "measure": "https://madie.cms.gov/Measure/CMS138FHIRPreventiveTobaccoCessation",
      "period": {
        "start": "2026-01-01",
        "end": "2026-12-31"
      },
      "group": [ {
        "id": "Group_1",
        "population": [ {
          "id": "InitialPopulation_1",
          "code": {
            "coding": [ {
              "system": "http://terminology.hl7.org/CodeSystem/measure-population",
              "code": "initial-population",
              "display": "Initial Population"
            } ]
          },
          "count": 1
        }, {
          "id": "Denominator_1",
          "code": {
            "coding": [ {
              "system": "http://terminology.hl7.org/CodeSystem/measure-population",
              "code": "denominator",
              "display": "Denominator"
            } ]
          },
          "count": 1
        }, {
          "id": "DenominatorExclusion_1",
          "code": {
            "coding": [ {
              "system": "http://terminology.hl7.org/CodeSystem/measure-population",
              "code": "denominator-exclusion",
              "display": "Denominator Exclusion"
            } ]
          },
          "count": 1
        }, {
          "id": "Numerator_1",
          "code": {
            "coding": [ {
              "system": "http://terminology.hl7.org/CodeSystem/measure-population",
              "code": "numerator",
              "display": "Numerator"
            } ]
          },
          "count": 0
        } ],
        "measureScore": {
          "value": 1.0
        }
      }, {
        "id": "Group_2",
        "population": [ {
          "id": "InitialPopulation_2",
          "code": {
            "coding": [ {
              "system": "http://terminology.hl7.org/CodeSystem/measure-population",
              "code": "initial-population",
              "display": "Initial Population"
            } ]
          },
          "count": 1
        }, {
          "id": "Denominator_2",
          "code": {
            "coding": [ {
              "system": "http://terminology.hl7.org/CodeSystem/measure-population",
              "code": "denominator",
              "display": "Denominator"
            } ]
          },
          "count": 1
        }, {
          "id": "DenominatorExclusion_2",
          "code": {
            "coding": [ {
              "system": "http://terminology.hl7.org/CodeSystem/measure-population",
              "code": "denominator-exclusion",
              "display": "Denominator Exclusion"
            } ]
          },
          "count": 1
        }, {
          "id": "Numerator_2",
          "code": {
            "coding": [ {
              "system": "http://terminology.hl7.org/CodeSystem/measure-population",
              "code": "numerator",
              "display": "Numerator"
            } ]
          },
          "count": 0
        } ],
        "measureScore": {
          "value": 1.0
        }
      }, {
        "id": "Group_3",
        "population": [ {
          "id": "InitialPopulation_3",
          "code": {
            "coding": [ {
              "system": "http://terminology.hl7.org/CodeSystem/measure-population",
              "code": "initial-population",
              "display": "Initial Population"
            } ]
          },
          "count": 1
        }, {
          "id": "Denominator_3",
          "code": {
            "coding": [ {
              "system": "http://terminology.hl7.org/CodeSystem/measure-population",
              "code": "denominator",
              "display": "Denominator"
            } ]
          },
          "count": 1
        }, {
          "id": "DenominatorExclusion_3",
          "code": {
            "coding": [ {
              "system": "http://terminology.hl7.org/CodeSystem/measure-population",
              "code": "denominator-exclusion",
              "display": "Denominator Exclusion"
            } ]
          },
          "count": 1
        }, {
          "id": "Numerator_3",
          "code": {
            "coding": [ {
              "system": "http://terminology.hl7.org/CodeSystem/measure-population",
              "code": "numerator",
              "display": "Numerator"
            } ]
          },
          "count": 0
        } ],
        "measureScore": {
          "value": 1.0
        }
      } ],
      "evaluatedResource": [ {
        "reference": "Patient/828caebe-4bd7-4579-85c6-d6340a9f3240"
      }, {
        "reference": "Encounter/e28cf6c7-31ec-4ed9-84ce-e2092992cff5"
      }, {
        "reference": "Encounter/9c7fdeb5-6f6e-4bdb-adf9-922b1131b791"
      }, {
        "reference": "Observation/97c0aa1a-61b9-4c06-9a20-e4d940da461b"
      }, {
        "reference": "ServiceRequest/b5f7aa9e-2854-4d72-b239-7ab572542919"
      } ]
    },
    "request": {
      "method": "PUT",
      "url": "MeasureReport/854cd37f-d7a9-4298-a926-7b68f3b05b4f"
    }
  } ]
}