{
  "resourceType": "Bundle",
  "id": "60f8469aa6b2848d9bc604f4",
  "type": "transaction",
  "entry": [ {
    "fullUrl": "https://madie.cms.gov/Patient/8bc5cedd-f265-49c4-be8e-d6a0a12b3752",
    "resource": {
      "resourceType": "Patient",
      "id": "8bc5cedd-f265-49c4-be8e-d6a0a12b3752",
      "meta": {
        "profile": [ "http://hl7.org/fhir/us/qicore/StructureDefinition/qicore-patient" ]
      },
      "extension": [ {
        "url": "http://hl7.org/fhir/us/core/StructureDefinition/us-core-race",
        "extension": [ {
          "url": "ombCategory",
          "valueCoding": {
            "system": "urn:oid:2.16.840.1.113883.6.238",
            "code": "1002-5",
            "display": "American Indian or Alaska Native",
            "userSelected": true
          }
        }, {
          "url": "text",
          "valueString": "American Indian or Alaska Native"
        } ]
      }, {
        "url": "http://hl7.org/fhir/us/core/StructureDefinition/us-core-ethnicity",
        "extension": [ {
          "url": "ombCategory",
          "valueCoding": {
            "system": "urn:oid:2.16.840.1.113883.6.238",
            "code": "2135-2",
            "display": "Hispanic or Latino",
            "userSelected": true
          }
        }, {
          "url": "text",
          "valueString": "Hispanic or Latino"
        } ]
      } ],
      "identifier": [ {
        "type": {
          "coding": [ {
            "system": "http://terminology.hl7.org/CodeSystem/v2-0203",
            "code": "MR"
          } ]
        },
        "system": "https://bonnie-fhir.healthit.gov/",
        "value": "60f8469aa6b2848d9bc604f4"
      } ],
      "name": [ {
        "family": "NUMERPass",
        "given": [ "LabTestAge65relevantPeriod" ]
      } ],
      "gender": "female",
      "birthDate": "1960-01-02"
    },
    "request": {
      "method": "PUT",
      "url": "Patient/8bc5cedd-f265-49c4-be8e-d6a0a12b3752"
    }
  }, {
    "fullUrl": "https://madie.cms.gov/Encounter/f4b168f6-f006-48ab-9812-1f855ca7d948",
    "resource": {
      "resourceType": "Encounter",
      "id": "f4b168f6-f006-48ab-9812-1f855ca7d948",
      "meta": {
        "profile": [ "http://hl7.org/fhir/us/qicore/StructureDefinition/qicore-encounter" ]
      },
      "status": "finished",
      "class": {
        "system": "http://terminology.hl7.org/CodeSystem/v3-ActCode",
        "code": "AMB",
        "display": "ambulatory",
        "userSelected": true
      },
      "type": [ {
        "coding": [ {
          "system": "http://www.ama-assn.org/go/cpt",
          "version": "2021",
          "code": "99395",
          "display": "Periodic comprehensive preventive medicine reevaluation and management of an individual including an age and gender appropriate history, examination, counseling/anticipatory guidance/risk factor reduction interventions, and the ordering of laboratory/diagnostic procedures, established patient; 18-39 years",
          "userSelected": true
        } ]
      } ],
      "subject": {
        "reference": "Patient/8bc5cedd-f265-49c4-be8e-d6a0a12b3752"
      },
      "period": {
        "start": "2026-02-06T08:00:00+00:00",
        "end": "2026-02-06T08:15:00+00:00"
      }
    },
    "request": {
      "method": "PUT",
      "url": "Encounter/f4b168f6-f006-48ab-9812-1f855ca7d948"
    }
  }, {
    "fullUrl": "https://madie.cms.gov/Observation/3563b31e-8a6b-49ee-af9e-3c2f2d14b744",
    "resource": {
      "resourceType": "Observation",
      "id": "3563b31e-8a6b-49ee-af9e-3c2f2d14b744",
      "meta": {
        "profile": [ "http://hl7.org/fhir/us/qicore/StructureDefinition/qicore-observation-lab" ]
      },
      "status": "final",
      "category": [ {
        "coding": [ {
          "system": "http://terminology.hl7.org/CodeSystem/observation-category",
          "code": "laboratory",
          "display": "Laboratory",
          "userSelected": true
        } ]
      } ],
      "code": {
        "coding": [ {
          "system": "http://loinc.org",
          "version": "2.69",
          "code": "10901-7",
          "display": "HIV 2 gp125 Ab [Presence] in Serum by Immunoblot",
          "userSelected": true
        } ]
      },
      "subject": {
        "reference": "Patient/8bc5cedd-f265-49c4-be8e-d6a0a12b3752"
      },
      "effectivePeriod": {
        "start": "2026-01-01T08:00:00+00:00",
        "end": "2026-01-01T08:15:00+00:00"
      },
      "valueBoolean": true
    },
    "request": {
      "method": "PUT",
      "url": "Observation/3563b31e-8a6b-49ee-af9e-3c2f2d14b744"
    }
  }, {
    "fullUrl": "https://madie.cms.gov/MeasureReport/662a5c3a-d415-4266-ab9e-fecd7174325d",
    "resource": {
      "resourceType": "MeasureReport",
      "id": "662a5c3a-d415-4266-ab9e-fecd7174325d",
      "meta": {
        "profile": [ "http://hl7.org/fhir/us/cqfmeasures/StructureDefinition/test-case-cqfm" ]
      },
      "contained": [ {
        "resourceType": "Parameters",
        "id": "b4cb3245-51f9-43ea-88e5-1bfd72ad0952-parameters",
        "parameter": [ {
          "name": "subject",
          "valueString": "8bc5cedd-f265-49c4-be8e-d6a0a12b3752"
        } ]
      } ],
      "extension": [ {
        "url": "http://hl7.org/fhir/StructureDefinition/cqf-inputParameters",
        "valueReference": {
          "reference": "#b4cb3245-51f9-43ea-88e5-1bfd72ad0952-parameters"
        }
      }, {
        "url": "http://hl7.org/fhir/us/cqfmeasures/StructureDefinition/cqfm-testCaseDescription",
        "valueMarkdown": "Patient 65 at start of MP,  qual encounter during MP, lab test at 65 during MP. - relevantPeriod"
      } ],
      "modifierExtension": [ {
        "url": "http://hl7.org/fhir/us/cqfmeasures/StructureDefinition/cqfm-isTestCase",
        "valueBoolean": true
      } ],
      "status": "complete",
      "type": "individual",
      "measure": "https://madie.cms.gov/Measure/CMS349FHIRHIVScreening",
      "period": {
        "start": "2026-01-01",
        "end": "2026-12-31"
      },
      "group": [ {
        "id": "Group_1",
        "population": [ {
          "id": "InitialPopulation_1",
          "code": {
            "coding": [ {
              "system": "http://terminology.hl7.org/CodeSystem/measure-population",
              "code": "initial-population",
              "display": "Initial Population"
            } ]
          },
          "count": 1
        }, {
          "id": "Denominator_1",
          "code": {
            "coding": [ {
              "system": "http://terminology.hl7.org/CodeSystem/measure-population",
              "code": "denominator",
              "display": "Denominator"
            } ]
          },
          "count": 1
        }, {
          "id": "DenominatorExclusion_1",
          "code": {
            "coding": [ {
              "system": "http://terminology.hl7.org/CodeSystem/measure-population",
              "code": "denominator-exclusion",
              "display": "Denominator Exclusion"
            } ]
          },
          "count": 0
        }, {
          "id": "Numerator_1",
          "code": {
            "coding": [ {
              "system": "http://terminology.hl7.org/CodeSystem/measure-population",
              "code": "numerator",
              "display": "Numerator"
            } ]
          },
          "count": 1
        }, {
          "id": "DenominatorException_1",
          "code": {
            "coding": [ {
              "system": "http://terminology.hl7.org/CodeSystem/measure-population",
              "code": "denominator-exception",
              "display": "Denominator Exception"
            } ]
          },
          "count": 0
        } ],
        "measureScore": {
          "value": 1.0
        }
      } ],
      "evaluatedResource": [ {
        "reference": "Patient/8bc5cedd-f265-49c4-be8e-d6a0a12b3752"
      }, {
        "reference": "Encounter/f4b168f6-f006-48ab-9812-1f855ca7d948"
      }, {
        "reference": "Observation/3563b31e-8a6b-49ee-af9e-3c2f2d14b744"
      } ]
    },
    "request": {
      "method": "PUT",
      "url": "MeasureReport/662a5c3a-d415-4266-ab9e-fecd7174325d"
    }
  } ]
}