{
  "resourceType": "Bundle",
  "id": "62aa660cc4be4c506d4a5351",
  "type": "transaction",
  "entry": [
    {
      "fullUrl": "https://madie.cms.gov/Patient/7ac9722f-8763-4380-a741-53ee4bb98819",
      "resource": {
        "resourceType": "Patient",
        "id": "7ac9722f-8763-4380-a741-53ee4bb98819",
        "meta": {
          "profile": [
            "http://hl7.org/fhir/us/qicore/StructureDefinition/qicore-patient"
          ]
        },
        "extension": [
          {
            "url": "http://hl7.org/fhir/us/core/StructureDefinition/us-core-race",
            "extension": [
              {
                "url": "ombCategory",
                "valueCoding": {
                  "system": "urn:oid:2.16.840.1.113883.6.238",
                  "code": "2106-3",
                  "display": "White",
                  "userSelected": true
                }
              },
              {
                "url": "text",
                "valueString": "White"
              }
            ]
          },
          {
            "url": "http://hl7.org/fhir/us/core/StructureDefinition/us-core-ethnicity",
            "extension": [
              {
                "url": "ombCategory",
                "valueCoding": {
                  "system": "urn:oid:2.16.840.1.113883.6.238",
                  "code": "2186-5",
                  "display": "Not Hispanic or Latino",
                  "userSelected": true
                }
              },
              {
                "url": "text",
                "valueString": "Not Hispanic or Latino"
              }
            ]
          }
        ],
        "identifier": [
          {
            "type": {
              "coding": [
                {
                  "system": "http://terminology.hl7.org/CodeSystem/v2-0203",
                  "code": "MR"
                }
              ]
            },
            "system": "https://bonnie-fhir.healthit.gov/",
            "value": "62aa660cc4be4c506d4a5351"
          }
        ],
        "name": [
          {
            "family": "DENEXCEPPass",
            "given": ["NotRequestedReferralForHighWeight"]
          }
        ],
        "gender": "unknown",
        "birthDate": "1957-11-07"
      },
      "request": {
        "method": "PUT",
        "url": "Patient/7ac9722f-8763-4380-a741-53ee4bb98819"
      }
    },
    {
      "fullUrl": "https://madie.cms.gov/Encounter/065df682-7661-4258-946b-da71978a9e42",
      "resource": {
        "resourceType": "Encounter",
        "id": "065df682-7661-4258-946b-da71978a9e42",
        "meta": {
          "profile": [
            "http://hl7.org/fhir/us/qicore/StructureDefinition/qicore-encounter"
          ]
        },
        "status": "finished",
        "class": {
          "system": "http://terminology.hl7.org/CodeSystem/v3-ActCode",
          "code": "AMB",
          "display": "ambulatory"
        },
        "type": [
          {
            "coding": [
              {
                "system": "http://snomed.info/sct",
                "version": "2022-03",
                "code": "10197000",
                "display": "Psychiatric interview and evaluation (procedure)",
                "userSelected": true
              }
            ]
          }
        ],
        "subject": {
          "reference": "Patient/7ac9722f-8763-4380-a741-53ee4bb98819"
        },
        "period": {
          "start": "2026-01-01T00:00:00.000+00:00",
          "end": "2026-01-01T00:30:00.000+00:00"
        }
      },
      "request": {
        "method": "PUT",
        "url": "Encounter/065df682-7661-4258-946b-da71978a9e42"
      }
    },
    {
      "fullUrl": "https://madie.cms.gov/Observation/14926853-1f2b-43ef-805d-84adbdf2bfa6",
      "resource": {
        "resourceType": "Observation",
        "id": "14926853-1f2b-43ef-805d-84adbdf2bfa6",
        "meta": {
          "profile": [
            "http://hl7.org/fhir/us/qicore/StructureDefinition/qicore-simple-observation"
          ]
        },
        "status": "amended",
        "category": [
          {
            "coding": [
              {
                "system": "http://terminology.hl7.org/CodeSystem/observation-category",
                "code": "procedure",
                "display": "Procedure"
              }
            ]
          }
        ],
        "code": {
          "coding": [
            {
              "system": "http://loinc.org",
              "code": "39156-5",
              "display": "Body mass index (BMI) [Ratio]",
              "userSelected": true
            }
          ]
        },
        "subject": {
          "reference": "Patient/7ac9722f-8763-4380-a741-53ee4bb98819"
        },
        "effectiveDateTime": "2026-01-01T00:05:00.000+00:00",
        "valueQuantity": {
          "value": 25.1,
          "unit": "kg/m2",
          "system": "http://unitsofmeasure.org",
          "code": "kg/m2"
        }
      },
      "request": {
        "method": "PUT",
        "url": "Observation/14926853-1f2b-43ef-805d-84adbdf2bfa6"
      }
    },
    {
      "fullUrl": "https://madie.cms.gov/ServiceRequest/6d32d02b-71f2-4182-94c3-434a4c4fcf73",
      "resource": {
        "resourceType": "ServiceRequest",
        "id": "6d32d02b-71f2-4182-94c3-434a4c4fcf73",
        "meta": {
          "profile": [
            "http://hl7.org/fhir/us/qicore/StructureDefinition/qicore-servicenotrequested"
          ]
        },
        "extension": [
          {
            "url": "http://hl7.org/fhir/us/qicore/StructureDefinition/qicore-doNotPerformReason",
            "valueCodeableConcept": {
              "coding": [
                {
                  "system": "http://snomed.info/sct",
                  "code": "183932001",
                  "display": "Procedure contraindicated (situation)",
                  "userSelected": true
                }
              ]
            }
          },
          {
            "url": "http://hl7.org/fhir/us/qicore/StructureDefinition/qicore-reasonRefused",
            "valueCodeableConcept": {
              "coding": [
                {
                  "system": "http://snomed.info/sct",
                  "code": "183932001",
                  "display": "Procedure contraindicated (situation)",
                  "userSelected": true
                }
              ]
            }
          }
        ],
        "status": "completed",
        "intent": "order",
        "doNotPerform": true,
        "code": {
          "coding": [
            {
              "system": "http://snomed.info/sct",
              "version": "2022-03",
              "code": "103699006",
              "display": "Patient referral to dietitian (procedure)",
              "userSelected": true
            }
          ]
        },
        "subject": {
          "reference": "Patient/7ac9722f-8763-4380-a741-53ee4bb98819"
        },
        "authoredOn": "2026-01-01T00:15:00.000+00:00",
        "reasonCode": [
          {
            "coding": [
              {
                "system": "http://snomed.info/sct",
                "code": "183932001",
                "display": "Procedure contraindicated (situation)",
                "userSelected": true
              }
            ]
          }
        ]
      },
      "request": {
        "method": "PUT",
        "url": "ServiceRequest/6d32d02b-71f2-4182-94c3-434a4c4fcf73"
      }
    },
    {
      "fullUrl": "https://madie.cms.gov/Coverage/57b6ebec-e3b8-4592-a6ae-da68e5d138e0",
      "resource": {
        "resourceType": "Coverage",
        "id": "57b6ebec-e3b8-4592-a6ae-da68e5d138e0",
        "meta": {
          "profile": [
            "http://hl7.org/fhir/us/qicore/StructureDefinition/qicore-coverage"
          ]
        },
        "status": "active",
        "beneficiary": {
          "reference": "Patient/7ac9722f-8763-4380-a741-53ee4bb98819"
        },
        "payor": [
          {
            "reference": "Organization/cdca3d18-0b49-4034-b87a-68b003e7e067"
          }
        ]
      },
      "request": {
        "method": "PUT",
        "url": "Coverage/57b6ebec-e3b8-4592-a6ae-da68e5d138e0"
      }
    },
    {
      "fullUrl": "https://madie.cms.gov/Organization/cdca3d18-0b49-4034-b87a-68b003e7e067",
      "resource": {
        "resourceType": "Organization",
        "id": "cdca3d18-0b49-4034-b87a-68b003e7e067",
        "meta": {
          "profile": [
            "http://hl7.org/fhir/us/qicore/StructureDefinition/qicore-organization"
          ]
        },
        "identifier": [
          {
            "use": "temp",
            "system": "urn:oid:2.16.840.1.113883.4.4",
            "value": "21-3259825"
          }
        ],
        "active": true,
        "type": [
          {
            "coding": [
              {
                "system": "http://terminology.hl7.org/CodeSystem/organization-type",
                "code": "pay",
                "display": "Payer"
              }
            ]
          }
        ],
        "name": "Blue Cross Blue Shield of Texas",
        "telecom": [
          {
            "system": "phone",
            "value": "(+1) 972-766-6900"
          }
        ],
        "address": [
          {
            "use": "billing",
            "type": "postal",
            "line": ["P.O. Box 660044"],
            "city": "Dallas",
            "state": "TX",
            "postalCode": "75266-0044",
            "country": "USA"
          }
        ]
      },
      "request": {
        "method": "PUT",
        "url": "Organization/cdca3d18-0b49-4034-b87a-68b003e7e067"
      }
    },
    {
      "fullUrl": "https://madie.cms.gov/Practitioner/89043732-b8b2-4e49-baf8-7c0f6fdcfa8a",
      "resource": {
        "resourceType": "Practitioner",
        "id": "89043732-b8b2-4e49-baf8-7c0f6fdcfa8a",
        "meta": {
          "profile": [
            "http://hl7.org/fhir/us/qicore/StructureDefinition/qicore-practitioner"
          ]
        },
        "identifier": [
          {
            "system": "http://hl7.org/fhir/sid/us-npi",
            "value": "123456"
          }
        ],
        "name": [
          {
            "family": "Evil",
            "prefix": ["Dr"]
          }
        ]
      },
      "request": {
        "method": "PUT",
        "url": "Practitioner/89043732-b8b2-4e49-baf8-7c0f6fdcfa8a"
      }
    },
    {
      "fullUrl": "https://madie.cms.gov/MeasureReport/49655334-0fa3-44d9-827d-2cab3657524b",
      "resource": {
        "resourceType": "MeasureReport",
        "id": "49655334-0fa3-44d9-827d-2cab3657524b",
        "meta": {
          "profile": [
            "http://hl7.org/fhir/us/cqfmeasures/StructureDefinition/test-case-cqfm"
          ]
        },
        "contained": [
          {
            "resourceType": "Parameters",
            "id": "6c9b51ae-6fff-4df4-b722-47d8a20d0dc6-parameters",
            "parameter": [
              {
                "name": "subject",
                "valueString": "7ac9722f-8763-4380-a741-53ee4bb98819"
              }
            ]
          }
        ],
        "extension": [
          {
            "url": "http://hl7.org/fhir/StructureDefinition/cqf-inputParameters",
            "valueReference": {
              "reference": "#6c9b51ae-6fff-4df4-b722-47d8a20d0dc6-parameters"
            }
          },
          {
            "url": "http://hl7.org/fhir/us/cqfmeasures/StructureDefinition/cqfm-testCaseDescription",
            "valueMarkdown": "Enc first day of MP, BMI 25.1 kg/m2, service not request for referral where weight assessment may occur, contraindicated"
          }
        ],
        "modifierExtension": [
          {
            "url": "http://hl7.org/fhir/us/cqfmeasures/StructureDefinition/cqfm-isTestCase",
            "valueBoolean": true
          }
        ],
        "status": "complete",
        "type": "individual",
        "measure": "https://madie.cms.gov/Measure/CMS69FHIRPCSBMIScreenAndFollowUp",
        "period": {
          "start": "2026-01-01",
          "end": "2026-12-31"
        },
        "group": [
          {
            "id": "Group_1",
            "population": [
              {
                "id": "InitialPopulation_1",
                "code": {
                  "coding": [
                    {
                      "system": "http://terminology.hl7.org/CodeSystem/measure-population",
                      "code": "initial-population",
                      "display": "Initial Population"
                    }
                  ]
                },
                "count": 1
              },
              {
                "id": "Denominator_1",
                "code": {
                  "coding": [
                    {
                      "system": "http://terminology.hl7.org/CodeSystem/measure-population",
                      "code": "denominator",
                      "display": "Denominator"
                    }
                  ]
                },
                "count": 1
              },
              {
                "id": "DenominatorExclusion_1",
                "code": {
                  "coding": [
                    {
                      "system": "http://terminology.hl7.org/CodeSystem/measure-population",
                      "code": "denominator-exclusion",
                      "display": "Denominator Exclusion"
                    }
                  ]
                },
                "count": 0
              },
              {
                "id": "Numerator_1",
                "code": {
                  "coding": [
                    {
                      "system": "http://terminology.hl7.org/CodeSystem/measure-population",
                      "code": "numerator",
                      "display": "Numerator"
                    }
                  ]
                },
                "count": 0
              },
              {
                "id": "DenominatorException_1",
                "code": {
                  "coding": [
                    {
                      "system": "http://terminology.hl7.org/CodeSystem/measure-population",
                      "code": "denominator-exception",
                      "display": "Denominator Exception"
                    }
                  ]
                },
                "count": 1
              }
            ],
            "measureScore": {
              "value": 1.0
            }
          }
        ],
        "evaluatedResource": [
          {
            "reference": "Patient/7ac9722f-8763-4380-a741-53ee4bb98819"
          },
          {
            "reference": "Encounter/065df682-7661-4258-946b-da71978a9e42"
          },
          {
            "reference": "Observation/14926853-1f2b-43ef-805d-84adbdf2bfa6"
          },
          {
            "reference": "ServiceRequest/6d32d02b-71f2-4182-94c3-434a4c4fcf73"
          },
          {
            "reference": "Coverage/57b6ebec-e3b8-4592-a6ae-da68e5d138e0"
          },
          {
            "reference": "Organization/cdca3d18-0b49-4034-b87a-68b003e7e067"
          },
          {
            "reference": "Practitioner/89043732-b8b2-4e49-baf8-7c0f6fdcfa8a"
          }
        ]
      },
      "request": {
        "method": "PUT",
        "url": "MeasureReport/49655334-0fa3-44d9-827d-2cab3657524b"
      }
    }
  ]
}
