{
  "resourceType": "Bundle",
  "id": "62aa507fc4be4c506d4a533a",
  "type": "transaction",
  "entry": [ {
    "fullUrl": "https://madie.cms.gov/Patient/6f03c77f-035f-4e3a-a8d9-57892dec4030",
    "resource": {
      "resourceType": "Patient",
      "id": "6f03c77f-035f-4e3a-a8d9-57892dec4030",
      "meta": {
        "profile": [ "http://hl7.org/fhir/us/qicore/StructureDefinition/qicore-patient" ]
      },
      "extension": [ {
        "url": "http://hl7.org/fhir/us/core/StructureDefinition/us-core-race",
        "extension": [ {
          "url": "ombCategory",
          "valueCoding": {
            "system": "urn:oid:2.16.840.1.113883.6.238",
            "code": "1002-5",
            "display": "American Indian or Alaska Native",
            "userSelected": true
          }
        }, {
          "url": "text",
          "valueString": "American Indian or Alaska Native"
        } ]
      }, {
        "url": "http://hl7.org/fhir/us/core/StructureDefinition/us-core-ethnicity",
        "extension": [ {
          "url": "ombCategory",
          "valueCoding": {
            "system": "urn:oid:2.16.840.1.113883.6.238",
            "code": "2186-5",
            "display": "Not Hispanic or Latino",
            "userSelected": true
          }
        }, {
          "url": "text",
          "valueString": "Not Hispanic or Latino"
        } ]
      } ],
      "identifier": [ {
        "type": {
          "coding": [ {
            "system": "http://terminology.hl7.org/CodeSystem/v2-0203",
            "code": "MR"
          } ]
        },
        "system": "https://bonnie-fhir.healthit.gov/",
        "value": "62aa507fc4be4c506d4a533a"
      } ],
      "name": [ {
        "family": "DENOMPass",
        "given": [ "Patient18DayOfEncounter" ]
      } ],
      "gender": "male",
      "birthDate": "2005-01-01"
    },
    "request": {
      "method": "PUT",
      "url": "Patient/6f03c77f-035f-4e3a-a8d9-57892dec4030"
    }
  }, {
    "fullUrl": "https://madie.cms.gov/Encounter/4a9ce496-caa8-4021-bfce-c588ad1fdb53",
    "resource": {
      "resourceType": "Encounter",
      "id": "4a9ce496-caa8-4021-bfce-c588ad1fdb53",
      "meta": {
        "profile": [ "http://hl7.org/fhir/us/qicore/StructureDefinition/qicore-encounter" ]
      },
      "status": "finished",
      "class": {
        "system": "http://terminology.hl7.org/CodeSystem/v3-ActCode",
        "code": "AMB",
        "display": "ambulatory"
      },
      "type": [ {
        "coding": [ {
          "system": "http://snomed.info/sct",
          "version": "2022-03",
          "code": "10197000",
          "display": "Psychiatric interview and evaluation (procedure)",
          "userSelected": true
        } ]
      } ],
      "subject": {
        "reference": "Patient/6f03c77f-035f-4e3a-a8d9-57892dec4030"
      },
      "period": {
        "start": "2024-12-31T00:00:00.000+00:00",
        "end": "2024-12-31T00:30:00.000+00:00"
      }
    },
    "request": {
      "method": "PUT",
      "url": "Encounter/4a9ce496-caa8-4021-bfce-c588ad1fdb53"
    }
  }, {
    "fullUrl": "https://madie.cms.gov/Coverage/d5ebcc43-5745-470a-a864-3f881415bcaf",
    "resource": {
      "resourceType": "Coverage",
      "id": "d5ebcc43-5745-470a-a864-3f881415bcaf",
      "meta": {
        "profile": [ "http://hl7.org/fhir/us/qicore/StructureDefinition/qicore-coverage" ]
      },
      "status": "active",
      "beneficiary": {
        "reference": "Patient/6f03c77f-035f-4e3a-a8d9-57892dec4030"
      },
      "payor": [ {
        "reference": "Organization/af3a063b-430c-4770-9c40-8f1480f6fb78"
      } ]
    },
    "request": {
      "method": "PUT",
      "url": "Coverage/d5ebcc43-5745-470a-a864-3f881415bcaf"
    }
  }, {
    "fullUrl": "https://madie.cms.gov/Organization/af3a063b-430c-4770-9c40-8f1480f6fb78",
    "resource": {
      "resourceType": "Organization",
      "id": "af3a063b-430c-4770-9c40-8f1480f6fb78",
      "meta": {
        "profile": [ "http://hl7.org/fhir/us/qicore/StructureDefinition/qicore-organization" ]
      },
      "identifier": [ {
        "use": "temp",
        "system": "urn:oid:2.16.840.1.113883.4.4",
        "value": "21-3259825"
      } ],
      "active": true,
      "type": [ {
        "coding": [ {
          "system": "http://terminology.hl7.org/CodeSystem/organization-type",
          "code": "pay",
          "display": "Payer"
        } ]
      } ],
      "name": "Blue Cross Blue Shield of Texas",
      "telecom": [ {
        "system": "phone",
        "value": "(+1) 972-766-6900"
      } ],
      "address": [ {
        "use": "billing",
        "type": "postal",
        "line": [ "P.O. Box 660044" ],
        "city": "Dallas",
        "state": "TX",
        "postalCode": "75266-0044",
        "country": "USA"
      } ]
    },
    "request": {
      "method": "PUT",
      "url": "Organization/af3a063b-430c-4770-9c40-8f1480f6fb78"
    }
  }, {
    "fullUrl": "https://madie.cms.gov/MeasureReport/f8d4173e-b6d6-4e8d-af95-9b996845f971",
    "resource": {
      "resourceType": "MeasureReport",
      "id": "f8d4173e-b6d6-4e8d-af95-9b996845f971",
      "meta": {
        "profile": [ "http://hl7.org/fhir/us/cqfmeasures/StructureDefinition/test-case-cqfm" ]
      },
      "contained": [ {
        "resourceType": "Parameters",
        "id": "08b46cdd-03da-4a30-82e4-a0bfe308260b-parameters",
        "parameter": [ {
          "name": "subject",
          "valueString": "6f03c77f-035f-4e3a-a8d9-57892dec4030"
        } ]
      } ],
      "extension": [ {
        "url": "http://hl7.org/fhir/StructureDefinition/cqf-inputParameters",
        "valueReference": {
          "reference": "#08b46cdd-03da-4a30-82e4-a0bfe308260b-parameters"
        }
      }, {
        "url": "http://hl7.org/fhir/us/cqfmeasures/StructureDefinition/cqfm-testCaseDescription",
        "valueMarkdown": "Ambulatory Encounter before MP"
      } ],
      "modifierExtension": [ {
        "url": "http://hl7.org/fhir/us/cqfmeasures/StructureDefinition/cqfm-isTestCase",
        "valueBoolean": true
      } ],
      "status": "complete",
      "type": "individual",
      "measure": "https://madie.cms.gov/Measure/CMS69FHIRPCSBMIScreenAndFollowUp",
      "period": {
        "start": "2026-01-01",
        "end": "2026-12-31"
      },
      "group": [ {
        "id": "Group_1",
        "population": [ {
          "id": "InitialPopulation_1",
          "code": {
            "coding": [ {
              "system": "http://terminology.hl7.org/CodeSystem/measure-population",
              "code": "initial-population",
              "display": "Initial Population"
            } ]
          },
          "count": 0
        }, {
          "id": "Denominator_1",
          "code": {
            "coding": [ {
              "system": "http://terminology.hl7.org/CodeSystem/measure-population",
              "code": "denominator",
              "display": "Denominator"
            } ]
          },
          "count": 0
        }, {
          "id": "DenominatorExclusion_1",
          "code": {
            "coding": [ {
              "system": "http://terminology.hl7.org/CodeSystem/measure-population",
              "code": "denominator-exclusion",
              "display": "Denominator Exclusion"
            } ]
          },
          "count": 0
        }, {
          "id": "Numerator_1",
          "code": {
            "coding": [ {
              "system": "http://terminology.hl7.org/CodeSystem/measure-population",
              "code": "numerator",
              "display": "Numerator"
            } ]
          },
          "count": 0
        }, {
          "id": "DenominatorException_1",
          "code": {
            "coding": [ {
              "system": "http://terminology.hl7.org/CodeSystem/measure-population",
              "code": "denominator-exception",
              "display": "Denominator Exception"
            } ]
          },
          "count": 0
        } ],
        "measureScore": {
          "value": 1.0
        }
      } ],
      "evaluatedResource": [ {
        "reference": "Patient/6f03c77f-035f-4e3a-a8d9-57892dec4030"
      }, {
        "reference": "Encounter/4a9ce496-caa8-4021-bfce-c588ad1fdb53"
      }, {
        "reference": "Coverage/d5ebcc43-5745-470a-a864-3f881415bcaf"
      }, {
        "reference": "Organization/af3a063b-430c-4770-9c40-8f1480f6fb78"
      } ]
    },
    "request": {
      "method": "PUT",
      "url": "MeasureReport/f8d4173e-b6d6-4e8d-af95-9b996845f971"
    }
  } ]
}