{
  "resourceType": "Bundle",
  "id": "62df29820056b6e23ec675a7",
  "type": "transaction",
  "entry": [
    {
      "fullUrl": "https://madie.cms.gov/Patient/6d26d364-a06c-49e6-84df-280ec6b7a8a3",
      "resource": {
        "resourceType": "Patient",
        "id": "6d26d364-a06c-49e6-84df-280ec6b7a8a3",
        "meta": {
          "profile": [
            "http://hl7.org/fhir/us/qicore/StructureDefinition/qicore-patient"
          ]
        },
        "extension": [
          {
            "url": "http://hl7.org/fhir/us/core/StructureDefinition/us-core-race",
            "extension": [
              {
                "url": "ombCategory",
                "valueCoding": {
                  "system": "urn:oid:2.16.840.1.113883.6.238",
                  "code": "2106-3",
                  "display": "White",
                  "userSelected": true
                }
              },
              {
                "url": "text",
                "valueString": "White"
              }
            ]
          },
          {
            "url": "http://hl7.org/fhir/us/core/StructureDefinition/us-core-ethnicity",
            "extension": [
              {
                "url": "ombCategory",
                "valueCoding": {
                  "system": "urn:oid:2.16.840.1.113883.6.238",
                  "code": "2186-5",
                  "display": "Not Hispanic or Latino",
                  "userSelected": true
                }
              },
              {
                "url": "text",
                "valueString": "Not Hispanic or Latino"
              }
            ]
          }
        ],
        "identifier": [
          {
            "type": {
              "coding": [
                {
                  "system": "http://terminology.hl7.org/CodeSystem/v2-0203",
                  "code": "MR"
                }
              ]
            },
            "system": "https://bonnie-fhir.healthit.gov/",
            "value": "62df29820056b6e23ec675a7"
          }
        ],
        "name": [
          {
            "family": "DENEXCEPPass",
            "given": ["MedicalReasonNoReferralHighBMI"]
          }
        ],
        "gender": "unknown",
        "birthDate": "1957-11-07"
      },
      "request": {
        "method": "PUT",
        "url": "Patient/6d26d364-a06c-49e6-84df-280ec6b7a8a3"
      }
    },
    {
      "fullUrl": "https://madie.cms.gov/Encounter/fd970887-8535-440c-9665-32330e9265d0",
      "resource": {
        "resourceType": "Encounter",
        "id": "fd970887-8535-440c-9665-32330e9265d0",
        "meta": {
          "profile": [
            "http://hl7.org/fhir/us/qicore/StructureDefinition/qicore-encounter"
          ]
        },
        "status": "finished",
        "class": {
          "system": "http://terminology.hl7.org/CodeSystem/v3-ActCode",
          "code": "AMB",
          "display": "ambulatory"
        },
        "type": [
          {
            "coding": [
              {
                "system": "http://snomed.info/sct",
                "version": "2022-03",
                "code": "10197000",
                "display": "Psychiatric interview and evaluation (procedure)",
                "userSelected": true
              }
            ]
          }
        ],
        "subject": {
          "reference": "Patient/6d26d364-a06c-49e6-84df-280ec6b7a8a3"
        },
        "period": {
          "start": "2026-01-01T08:00:00.000+00:00",
          "end": "2026-01-01T08:15:00.000+00:00"
        }
      },
      "request": {
        "method": "PUT",
        "url": "Encounter/fd970887-8535-440c-9665-32330e9265d0"
      }
    },
    {
      "fullUrl": "https://madie.cms.gov/Observation/0e1d0e2b-4619-4a47-ac1f-75afb3e8dd4e",
      "resource": {
        "resourceType": "Observation",
        "id": "0e1d0e2b-4619-4a47-ac1f-75afb3e8dd4e",
        "meta": {
          "profile": [
            "http://hl7.org/fhir/us/qicore/StructureDefinition/qicore-simple-observation"
          ]
        },
        "status": "amended",
        "category": [
          {
            "coding": [
              {
                "system": "http://terminology.hl7.org/CodeSystem/observation-category",
                "code": "procedure",
                "display": "Procedure"
              }
            ]
          }
        ],
        "code": {
          "coding": [
            {
              "system": "http://loinc.org",
              "code": "39156-5",
              "display": "Body mass index (BMI) [Ratio]",
              "userSelected": true
            }
          ]
        },
        "subject": {
          "reference": "Patient/6d26d364-a06c-49e6-84df-280ec6b7a8a3"
        },
        "effectiveDateTime": "2026-01-01T08:05:00.000+00:00",
        "valueQuantity": {
          "value": 30.0,
          "unit": "kg/m2",
          "system": "http://unitsofmeasure.org",
          "code": "kg/m2"
        }
      },
      "request": {
        "method": "PUT",
        "url": "Observation/0e1d0e2b-4619-4a47-ac1f-75afb3e8dd4e"
      }
    },
    {
      "fullUrl": "https://madie.cms.gov/ServiceRequest/20434062-27d7-4314-8bef-f2b98d8c10a3",
      "resource": {
        "resourceType": "ServiceRequest",
        "id": "20434062-27d7-4314-8bef-f2b98d8c10a3",
        "meta": {
          "profile": [
            "http://hl7.org/fhir/us/qicore/StructureDefinition/qicore-servicenotrequested"
          ]
        },
        "extension": [
          {
            "url": "http://hl7.org/fhir/us/qicore/StructureDefinition/qicore-doNotPerformReason",
            "valueCodeableConcept": {
              "coding": [
                {
                  "system": "http://snomed.info/sct",
                  "code": "183932001",
                  "display": "Procedure contraindicated (situation)",
                  "userSelected": true
                }
              ]
            }
          }
        ],
        "status": "completed",
        "intent": "order",
        "doNotPerform": true,
        "code": {
          "coding": [
            {
              "system": "http://snomed.info/sct",
              "version": "2022-03",
              "code": "183515008",
              "display": "Referral to physician (procedure)",
              "userSelected": true
            }
          ]
        },
        "subject": {
          "reference": "Patient/6d26d364-a06c-49e6-84df-280ec6b7a8a3"
        },
        "authoredOn": "2026-01-01T08:05:00.000+00:00"
      },
      "request": {
        "method": "PUT",
        "url": "ServiceRequest/20434062-27d7-4314-8bef-f2b98d8c10a3"
      }
    },
    {
      "fullUrl": "https://madie.cms.gov/Coverage/bee1947c-c0f0-44b8-9ad0-6431aa520212",
      "resource": {
        "resourceType": "Coverage",
        "id": "bee1947c-c0f0-44b8-9ad0-6431aa520212",
        "meta": {
          "profile": [
            "http://hl7.org/fhir/us/qicore/StructureDefinition/qicore-coverage"
          ]
        },
        "status": "active",
        "beneficiary": {
          "reference": "Patient/6d26d364-a06c-49e6-84df-280ec6b7a8a3"
        },
        "payor": [
          {
            "reference": "Organization/b1d4b5a9-1cd1-4ea9-bb35-b6dd4c41577f"
          }
        ]
      },
      "request": {
        "method": "PUT",
        "url": "Coverage/bee1947c-c0f0-44b8-9ad0-6431aa520212"
      }
    },
    {
      "fullUrl": "https://madie.cms.gov/Organization/b1d4b5a9-1cd1-4ea9-bb35-b6dd4c41577f",
      "resource": {
        "resourceType": "Organization",
        "id": "b1d4b5a9-1cd1-4ea9-bb35-b6dd4c41577f",
        "meta": {
          "profile": [
            "http://hl7.org/fhir/us/qicore/StructureDefinition/qicore-organization"
          ]
        },
        "identifier": [
          {
            "use": "temp",
            "system": "urn:oid:2.16.840.1.113883.4.4",
            "value": "21-3259825"
          }
        ],
        "active": true,
        "type": [
          {
            "coding": [
              {
                "system": "http://terminology.hl7.org/CodeSystem/organization-type",
                "code": "pay",
                "display": "Payer"
              }
            ]
          }
        ],
        "name": "Blue Cross Blue Shield of Texas",
        "telecom": [
          {
            "system": "phone",
            "value": "(+1) 972-766-6900"
          }
        ],
        "address": [
          {
            "use": "billing",
            "type": "postal",
            "line": ["P.O. Box 660044"],
            "city": "Dallas",
            "state": "TX",
            "postalCode": "75266-0044",
            "country": "USA"
          }
        ]
      },
      "request": {
        "method": "PUT",
        "url": "Organization/b1d4b5a9-1cd1-4ea9-bb35-b6dd4c41577f"
      }
    },
    {
      "fullUrl": "https://madie.cms.gov/Practitioner/1b06191f-1da1-4d0e-b40f-ae749cccc0ee",
      "resource": {
        "resourceType": "Practitioner",
        "id": "1b06191f-1da1-4d0e-b40f-ae749cccc0ee",
        "meta": {
          "profile": [
            "http://hl7.org/fhir/us/qicore/StructureDefinition/qicore-practitioner"
          ]
        },
        "identifier": [
          {
            "system": "http://hl7.org/fhir/sid/us-npi",
            "value": "123456"
          }
        ],
        "name": [
          {
            "family": "Evil",
            "prefix": ["Dr"]
          }
        ]
      },
      "request": {
        "method": "PUT",
        "url": "Practitioner/1b06191f-1da1-4d0e-b40f-ae749cccc0ee"
      }
    },
    {
      "fullUrl": "https://madie.cms.gov/MeasureReport/a5138876-ebd6-4e03-9838-5e8fb984e391",
      "resource": {
        "resourceType": "MeasureReport",
        "id": "a5138876-ebd6-4e03-9838-5e8fb984e391",
        "meta": {
          "profile": [
            "http://hl7.org/fhir/us/cqfmeasures/StructureDefinition/test-case-cqfm"
          ]
        },
        "contained": [
          {
            "resourceType": "Parameters",
            "id": "ee0d7ff0-9342-4ab1-ac23-34148d561e3c-parameters",
            "parameter": [
              {
                "name": "subject",
                "valueString": "6d26d364-a06c-49e6-84df-280ec6b7a8a3"
              }
            ]
          }
        ],
        "extension": [
          {
            "url": "http://hl7.org/fhir/StructureDefinition/cqf-inputParameters",
            "valueReference": {
              "reference": "#ee0d7ff0-9342-4ab1-ac23-34148d561e3c-parameters"
            }
          },
          {
            "url": "http://hl7.org/fhir/us/cqfmeasures/StructureDefinition/cqfm-testCaseDescription",
            "valueMarkdown": "Enc first day of MP,  BMI high @ 30 kg/m2  and has a medical reason for not providing a referral"
          }
        ],
        "modifierExtension": [
          {
            "url": "http://hl7.org/fhir/us/cqfmeasures/StructureDefinition/cqfm-isTestCase",
            "valueBoolean": true
          }
        ],
        "status": "complete",
        "type": "individual",
        "measure": "https://madie.cms.gov/Measure/CMS69FHIRPCSBMIScreenAndFollowUp",
        "period": {
          "start": "2026-01-01",
          "end": "2026-12-31"
        },
        "group": [
          {
            "id": "Group_1",
            "population": [
              {
                "id": "InitialPopulation_1",
                "code": {
                  "coding": [
                    {
                      "system": "http://terminology.hl7.org/CodeSystem/measure-population",
                      "code": "initial-population",
                      "display": "Initial Population"
                    }
                  ]
                },
                "count": 1
              },
              {
                "id": "Denominator_1",
                "code": {
                  "coding": [
                    {
                      "system": "http://terminology.hl7.org/CodeSystem/measure-population",
                      "code": "denominator",
                      "display": "Denominator"
                    }
                  ]
                },
                "count": 1
              },
              {
                "id": "DenominatorExclusion_1",
                "code": {
                  "coding": [
                    {
                      "system": "http://terminology.hl7.org/CodeSystem/measure-population",
                      "code": "denominator-exclusion",
                      "display": "Denominator Exclusion"
                    }
                  ]
                },
                "count": 0
              },
              {
                "id": "Numerator_1",
                "code": {
                  "coding": [
                    {
                      "system": "http://terminology.hl7.org/CodeSystem/measure-population",
                      "code": "numerator",
                      "display": "Numerator"
                    }
                  ]
                },
                "count": 0
              },
              {
                "id": "DenominatorException_1",
                "code": {
                  "coding": [
                    {
                      "system": "http://terminology.hl7.org/CodeSystem/measure-population",
                      "code": "denominator-exception",
                      "display": "Denominator Exception"
                    }
                  ]
                },
                "count": 1
              }
            ],
            "measureScore": {
              "value": 1.0
            }
          }
        ],
        "evaluatedResource": [
          {
            "reference": "Patient/6d26d364-a06c-49e6-84df-280ec6b7a8a3"
          },
          {
            "reference": "Encounter/fd970887-8535-440c-9665-32330e9265d0"
          },
          {
            "reference": "Observation/0e1d0e2b-4619-4a47-ac1f-75afb3e8dd4e"
          },
          {
            "reference": "ServiceRequest/20434062-27d7-4314-8bef-f2b98d8c10a3"
          },
          {
            "reference": "Coverage/bee1947c-c0f0-44b8-9ad0-6431aa520212"
          },
          {
            "reference": "Organization/b1d4b5a9-1cd1-4ea9-bb35-b6dd4c41577f"
          },
          {
            "reference": "Practitioner/1b06191f-1da1-4d0e-b40f-ae749cccc0ee"
          }
        ]
      },
      "request": {
        "method": "PUT",
        "url": "MeasureReport/a5138876-ebd6-4e03-9838-5e8fb984e391"
      }
    }
  ]
}
