{
  "resourceType": "Bundle",
  "id": "62aa63d1c4be4c506d4a534d",
  "type": "transaction",
  "entry": [ {
    "fullUrl": "https://madie.cms.gov/Patient/7902e3dc-f3da-4cc2-9f2e-4a6c8cd33b88",
    "resource": {
      "resourceType": "Patient",
      "id": "7902e3dc-f3da-4cc2-9f2e-4a6c8cd33b88",
      "meta": {
        "profile": [ "http://hl7.org/fhir/us/qicore/StructureDefinition/qicore-patient" ]
      },
      "extension": [ {
        "url": "http://hl7.org/fhir/us/core/StructureDefinition/us-core-race",
        "extension": [ {
          "url": "ombCategory",
          "valueCoding": {
            "system": "urn:oid:2.16.840.1.113883.6.238",
            "code": "2106-3",
            "display": "White",
            "userSelected": true
          }
        }, {
          "url": "text",
          "valueString": "White"
        } ]
      }, {
        "url": "http://hl7.org/fhir/us/core/StructureDefinition/us-core-ethnicity",
        "extension": [ {
          "url": "ombCategory",
          "valueCoding": {
            "system": "urn:oid:2.16.840.1.113883.6.238",
            "code": "2186-5",
            "display": "Not Hispanic or Latino",
            "userSelected": true
          }
        }, {
          "url": "text",
          "valueString": "Not Hispanic or Latino"
        } ]
      } ],
      "identifier": [ {
        "type": {
          "coding": [ {
            "system": "http://terminology.hl7.org/CodeSystem/v2-0203",
            "code": "MR"
          } ]
        },
        "system": "https://bonnie-fhir.healthit.gov/",
        "value": "62aa63d1c4be4c506d4a534d"
      } ],
      "name": [ {
        "family": "NUMERPass",
        "given": [ "LowBMIAndInterventionPerformed" ]
      } ],
      "gender": "unknown",
      "birthDate": "1957-11-07"
    },
    "request": {
      "method": "PUT",
      "url": "Patient/7902e3dc-f3da-4cc2-9f2e-4a6c8cd33b88"
    }
  }, {
    "fullUrl": "https://madie.cms.gov/Encounter/a65485f7-86ee-42c6-9632-8140d92efc6c",
    "resource": {
      "resourceType": "Encounter",
      "id": "a65485f7-86ee-42c6-9632-8140d92efc6c",
      "meta": {
        "profile": [ "http://hl7.org/fhir/us/qicore/StructureDefinition/qicore-encounter" ]
      },
      "status": "finished",
      "class": {
        "system": "http://terminology.hl7.org/CodeSystem/v3-ActCode",
        "code": "AMB",
        "display": "ambulatory"
      },
      "type": [ {
        "coding": [ {
          "system": "http://snomed.info/sct",
          "version": "2022-03",
          "code": "10197000",
          "display": "Psychiatric interview and evaluation (procedure)",
          "userSelected": true
        } ]
      } ],
      "subject": {
        "reference": "Patient/7902e3dc-f3da-4cc2-9f2e-4a6c8cd33b88"
      },
      "period": {
        "start": "2026-06-15T08:00:00.000+00:00",
        "end": "2026-06-15T08:15:00.000+00:00"
      }
    },
    "request": {
      "method": "PUT",
      "url": "Encounter/a65485f7-86ee-42c6-9632-8140d92efc6c"
    }
  }, {
    "fullUrl": "https://madie.cms.gov/Observation/c856af12-7a34-4578-a7db-76f8eb5bd988",
    "resource": {
      "resourceType": "Observation",
      "id": "c856af12-7a34-4578-a7db-76f8eb5bd988",
      "meta": {
        "profile": [ "http://hl7.org/fhir/us/core/StructureDefinition/us-core-bmi" ]
      },
      "status": "final",
      "category": [ {
        "coding": [ {
          "system": "http://terminology.hl7.org/CodeSystem/observation-category",
          "code": "vital-signs",
          "display": "Vital Signs"
        } ]
      } ],
      "code": {
        "coding": [ {
          "system": "http://loinc.org",
          "code": "39156-5",
          "display": "Body mass index (BMI) [Ratio]",
          "userSelected": true
        } ]
      },
      "subject": {
        "reference": "Patient/7902e3dc-f3da-4cc2-9f2e-4a6c8cd33b88"
      },
      "effectiveDateTime": "2026-06-15T08:05:00.000+00:00",
      "valueQuantity": {
        "value": 17.0,
        "unit": "kg/m2",
        "system": "http://unitsofmeasure.org",
        "code": "kg/m2"
      }
    },
    "request": {
      "method": "PUT",
      "url": "Observation/c856af12-7a34-4578-a7db-76f8eb5bd988"
    }
  }, {
    "fullUrl": "https://madie.cms.gov/Procedure/4066125b-f9bf-4136-9aeb-51361f91ea91",
    "resource": {
      "resourceType": "Procedure",
      "id": "4066125b-f9bf-4136-9aeb-51361f91ea91",
      "meta": {
        "profile": [ "http://hl7.org/fhir/us/qicore/StructureDefinition/qicore-procedure" ]
      },
      "extension": [ {
        "url": "http://hl7.org/fhir/us/qicore/StructureDefinition/qicore-recorded",
        "valueDateTime": "2026-02-01T09:00:00.000+00:00"
      } ],
      "status": "completed",
      "code": {
        "coding": [ {
          "system": "http://snomed.info/sct",
          "version": "2022-03",
          "code": "182922004",
          "display": "Dietary regime (regime/therapy)",
          "userSelected": true
        } ]
      },
      "subject": {
        "reference": "Patient/7902e3dc-f3da-4cc2-9f2e-4a6c8cd33b88"
      },
      "performedDateTime": "2026-06-26T08:00:00.000+00:00",
      "reasonCode": [ {
        "coding": [ {
          "system": "http://hl7.org/fhir/sid/icd-10-cm",
          "code": "R63.6",
          "display": "Underweight",
          "userSelected": true
        } ]
      } ]
    },
    "request": {
      "method": "PUT",
      "url": "Procedure/4066125b-f9bf-4136-9aeb-51361f91ea91"
    }
  }, {
    "fullUrl": "https://madie.cms.gov/Coverage/68ab9be2-3b35-454f-8b61-3fdcbf8bc58b",
    "resource": {
      "resourceType": "Coverage",
      "id": "68ab9be2-3b35-454f-8b61-3fdcbf8bc58b",
      "meta": {
        "profile": [ "http://hl7.org/fhir/us/qicore/StructureDefinition/qicore-coverage" ]
      },
      "status": "active",
      "beneficiary": {
        "reference": "Patient/7902e3dc-f3da-4cc2-9f2e-4a6c8cd33b88"
      },
      "payor": [ {
        "reference": "Organization/32df3991-1f69-4a38-bc90-f284974400c4"
      } ]
    },
    "request": {
      "method": "PUT",
      "url": "Coverage/68ab9be2-3b35-454f-8b61-3fdcbf8bc58b"
    }
  }, {
    "fullUrl": "https://madie.cms.gov/Organization/32df3991-1f69-4a38-bc90-f284974400c4",
    "resource": {
      "resourceType": "Organization",
      "id": "32df3991-1f69-4a38-bc90-f284974400c4",
      "meta": {
        "profile": [ "http://hl7.org/fhir/us/qicore/StructureDefinition/qicore-organization" ]
      },
      "identifier": [ {
        "use": "temp",
        "system": "urn:oid:2.16.840.1.113883.4.4",
        "value": "21-3259825"
      } ],
      "active": true,
      "type": [ {
        "coding": [ {
          "system": "http://terminology.hl7.org/CodeSystem/organization-type",
          "code": "pay",
          "display": "Payer"
        } ]
      } ],
      "name": "Blue Cross Blue Shield of Texas",
      "telecom": [ {
        "system": "phone",
        "value": "(+1) 972-766-6900"
      } ],
      "address": [ {
        "use": "billing",
        "type": "postal",
        "line": [ "P.O. Box 660044" ],
        "city": "Dallas",
        "state": "TX",
        "postalCode": "75266-0044",
        "country": "USA"
      } ]
    },
    "request": {
      "method": "PUT",
      "url": "Organization/32df3991-1f69-4a38-bc90-f284974400c4"
    }
  }, {
    "fullUrl": "https://madie.cms.gov/MeasureReport/b5098b1c-9407-4132-87d5-d9f47d5ebfe9",
    "resource": {
      "resourceType": "MeasureReport",
      "id": "b5098b1c-9407-4132-87d5-d9f47d5ebfe9",
      "meta": {
        "profile": [ "http://hl7.org/fhir/us/cqfmeasures/StructureDefinition/test-case-cqfm" ]
      },
      "contained": [ {
        "resourceType": "Parameters",
        "id": "d5b5b52b-ec28-43f5-9a3e-6b88c1318ef9-parameters",
        "parameter": [ {
          "name": "subject",
          "valueString": "7902e3dc-f3da-4cc2-9f2e-4a6c8cd33b88"
        } ]
      } ],
      "extension": [ {
        "url": "http://hl7.org/fhir/StructureDefinition/cqf-inputParameters",
        "valueReference": {
          "reference": "#d5b5b52b-ec28-43f5-9a3e-6b88c1318ef9-parameters"
        }
      }, {
        "url": "http://hl7.org/fhir/us/cqfmeasures/StructureDefinition/cqfm-testCaseDescription",
        "valueMarkdown": "Adult, ambulatory enc., BMI low at 17 kg/m2 and interventions performed with reason code first minute of enc.\n\n"
      } ],
      "modifierExtension": [ {
        "url": "http://hl7.org/fhir/us/cqfmeasures/StructureDefinition/cqfm-isTestCase",
        "valueBoolean": true
      } ],
      "status": "complete",
      "type": "individual",
      "measure": "https://madie.cms.gov/Measure/CMS69FHIRPCSBMIScreenAndFollowUp",
      "period": {
        "start": "2026-01-01",
        "end": "2026-12-31"
      },
      "group": [ {
        "id": "Group_1",
        "population": [ {
          "id": "InitialPopulation_1",
          "code": {
            "coding": [ {
              "system": "http://terminology.hl7.org/CodeSystem/measure-population",
              "code": "initial-population",
              "display": "Initial Population"
            } ]
          },
          "count": 1
        }, {
          "id": "Denominator_1",
          "code": {
            "coding": [ {
              "system": "http://terminology.hl7.org/CodeSystem/measure-population",
              "code": "denominator",
              "display": "Denominator"
            } ]
          },
          "count": 1
        }, {
          "id": "DenominatorExclusion_1",
          "code": {
            "coding": [ {
              "system": "http://terminology.hl7.org/CodeSystem/measure-population",
              "code": "denominator-exclusion",
              "display": "Denominator Exclusion"
            } ]
          },
          "count": 0
        }, {
          "id": "Numerator_1",
          "code": {
            "coding": [ {
              "system": "http://terminology.hl7.org/CodeSystem/measure-population",
              "code": "numerator",
              "display": "Numerator"
            } ]
          },
          "count": 1
        }, {
          "id": "DenominatorException_1",
          "code": {
            "coding": [ {
              "system": "http://terminology.hl7.org/CodeSystem/measure-population",
              "code": "denominator-exception",
              "display": "Denominator Exception"
            } ]
          },
          "count": 0
        } ],
        "measureScore": {
          "value": 1.0
        }
      } ],
      "evaluatedResource": [ {
        "reference": "Patient/7902e3dc-f3da-4cc2-9f2e-4a6c8cd33b88"
      }, {
        "reference": "Encounter/a65485f7-86ee-42c6-9632-8140d92efc6c"
      }, {
        "reference": "Observation/c856af12-7a34-4578-a7db-76f8eb5bd988"
      }, {
        "reference": "Procedure/4066125b-f9bf-4136-9aeb-51361f91ea91"
      }, {
        "reference": "Coverage/68ab9be2-3b35-454f-8b61-3fdcbf8bc58b"
      }, {
        "reference": "Organization/32df3991-1f69-4a38-bc90-f284974400c4"
      } ]
    },
    "request": {
      "method": "PUT",
      "url": "MeasureReport/b5098b1c-9407-4132-87d5-d9f47d5ebfe9"
    }
  } ]
}