{
  "resourceType": "Bundle",
  "id": "62ab5d9131fa0a130d9331db",
  "type": "transaction",
  "entry": [ {
    "fullUrl": "https://madie.cms.gov/Patient/a327cf96-81c4-46ff-9619-6fd9981bb90c",
    "resource": {
      "resourceType": "Patient",
      "id": "a327cf96-81c4-46ff-9619-6fd9981bb90c",
      "meta": {
        "profile": [ "http://hl7.org/fhir/us/qicore/StructureDefinition/qicore-patient" ]
      },
      "extension": [ {
        "url": "http://hl7.org/fhir/us/core/StructureDefinition/us-core-race",
        "extension": [ {
          "url": "ombCategory",
          "valueCoding": {
            "system": "urn:oid:2.16.840.1.113883.6.238",
            "code": "2106-3",
            "display": "White",
            "userSelected": true
          }
        }, {
          "url": "text",
          "valueString": "White"
        } ]
      }, {
        "url": "http://hl7.org/fhir/us/core/StructureDefinition/us-core-ethnicity",
        "extension": [ {
          "url": "ombCategory",
          "valueCoding": {
            "system": "urn:oid:2.16.840.1.113883.6.238",
            "code": "2186-5",
            "display": "Not Hispanic or Latino",
            "userSelected": true
          }
        }, {
          "url": "text",
          "valueString": "Not Hispanic or Latino"
        } ]
      } ],
      "identifier": [ {
        "type": {
          "coding": [ {
            "system": "http://terminology.hl7.org/CodeSystem/v2-0203",
            "code": "MR"
          } ]
        },
        "system": "https://bonnie-fhir.healthit.gov/",
        "value": "62ab5d9131fa0a130d9331db"
      } ],
      "name": [ {
        "family": "DENEXCEPPass",
        "given": [ "MedicalReasonNotPerformed" ]
      } ],
      "gender": "unknown",
      "birthDate": "1957-11-07"
    },
    "request": {
      "method": "PUT",
      "url": "Patient/a327cf96-81c4-46ff-9619-6fd9981bb90c"
    }
  }, {
    "fullUrl": "https://madie.cms.gov/Encounter/3c5ee7ff-bbcd-41c5-9428-3fba555a8fb9",
    "resource": {
      "resourceType": "Encounter",
      "id": "3c5ee7ff-bbcd-41c5-9428-3fba555a8fb9",
      "meta": {
        "profile": [ "http://hl7.org/fhir/us/qicore/StructureDefinition/qicore-encounter" ]
      },
      "status": "finished",
      "class": {
        "system": "http://terminology.hl7.org/CodeSystem/v3-ActCode",
        "code": "AMB",
        "display": "ambulatory"
      },
      "type": [ {
        "coding": [ {
          "system": "http://snomed.info/sct",
          "version": "2022-03",
          "code": "10197000",
          "display": "Psychiatric interview and evaluation (procedure)",
          "userSelected": true
        } ]
      } ],
      "subject": {
        "reference": "Patient/a327cf96-81c4-46ff-9619-6fd9981bb90c"
      },
      "period": {
        "start": "2026-06-15T08:00:00.000+00:00",
        "end": "2026-06-15T08:15:00.000+00:00"
      }
    },
    "request": {
      "method": "PUT",
      "url": "Encounter/3c5ee7ff-bbcd-41c5-9428-3fba555a8fb9"
    }
  }, {
    "fullUrl": "https://madie.cms.gov/Observation/bf3ad721-9ea7-4fdc-ad39-836023c7e55d",
    "resource": {
      "resourceType": "Observation",
      "id": "bf3ad721-9ea7-4fdc-ad39-836023c7e55d",
      "meta": {
        "profile": [ "http://hl7.org/fhir/us/qicore/StructureDefinition/qicore-observationcancelled" ]
      },
      "extension": [ {
        "url": "http://hl7.org/fhir/us/qicore/StructureDefinition/qicore-notDoneReason",
        "valueCodeableConcept": {
          "coding": [ {
            "system": "http://snomed.info/sct",
            "code": "183932001",
            "display": "Procedure contraindicated (situation)",
            "userSelected": true
          } ]
        }
      } ],
      "modifierExtension": [ {
        "url": "http://hl7.org/fhir/us/qicore/StructureDefinition/qicore-notDone",
        "valueBoolean": true
      } ],
      "status": "cancelled",
      "category": [ {
        "coding": [ {
          "system": "http://terminology.hl7.org/CodeSystem/observation-category",
          "code": "procedure",
          "display": "Procedure"
        } ]
      } ],
      "code": {
        "coding": [ {
          "system": "http://loinc.org",
          "code": "39156-5",
          "display": "Body mass index (BMI) [Ratio]",
          "userSelected": true
        } ]
      },
      "subject": {
        "reference": "Patient/a327cf96-81c4-46ff-9619-6fd9981bb90c"
      },
      "effectiveDateTime": "2026-06-15T08:05:00.000+00:00",
      "issued": "2026-06-15T08:05:00.000+00:00"
    },
    "request": {
      "method": "PUT",
      "url": "Observation/bf3ad721-9ea7-4fdc-ad39-836023c7e55d"
    }
  }, {
    "fullUrl": "https://madie.cms.gov/ServiceRequest/9a2a3a79-d3ee-4209-ace2-01b74f3bbb76",
    "resource": {
      "resourceType": "ServiceRequest",
      "id": "9a2a3a79-d3ee-4209-ace2-01b74f3bbb76",
      "meta": {
        "profile": [ "http://hl7.org/fhir/us/qicore/StructureDefinition/qicore-servicerequest" ]
      },
      "extension": [ {
        "url": "http://qicore-qicore-doNotPerformReason",
        "valueCodeableConcept": {
          "coding": [ {
            "system": "http://snomed.info/sct",
            "code": "183932001",
            "display": "Procedure contraindicated (situation)",
            "userSelected": true
          } ]
        }
      } ],
      "status": "completed",
      "intent": "order",
      "doNotPerform": true,
      "code": {
        "coding": [ {
          "system": "http://snomed.info/sct",
          "version": "2022-03",
          "code": "182922004",
          "display": "Dietary regime (regime/therapy)",
          "userSelected": true
        } ]
      },
      "subject": {
        "reference": "Patient/a327cf96-81c4-46ff-9619-6fd9981bb90c"
      },
      "authoredOn": "2026-06-15T08:00:00.000+00:00"
    },
    "request": {
      "method": "PUT",
      "url": "ServiceRequest/9a2a3a79-d3ee-4209-ace2-01b74f3bbb76"
    }
  }, {
    "fullUrl": "https://madie.cms.gov/Coverage/6a0fb388-fd90-4163-9d89-368d1e6ed014",
    "resource": {
      "resourceType": "Coverage",
      "id": "6a0fb388-fd90-4163-9d89-368d1e6ed014",
      "meta": {
        "profile": [ "http://hl7.org/fhir/us/qicore/StructureDefinition/qicore-coverage" ]
      },
      "status": "active",
      "beneficiary": {
        "reference": "Patient/a327cf96-81c4-46ff-9619-6fd9981bb90c"
      },
      "payor": [ {
        "reference": "Organization/a969035e-273c-41be-a288-2b3f367bb518"
      } ]
    },
    "request": {
      "method": "PUT",
      "url": "Coverage/6a0fb388-fd90-4163-9d89-368d1e6ed014"
    }
  }, {
    "fullUrl": "https://madie.cms.gov/Organization/a969035e-273c-41be-a288-2b3f367bb518",
    "resource": {
      "resourceType": "Organization",
      "id": "a969035e-273c-41be-a288-2b3f367bb518",
      "meta": {
        "profile": [ "http://hl7.org/fhir/us/qicore/StructureDefinition/qicore-organization" ]
      },
      "identifier": [ {
        "use": "temp",
        "system": "urn:oid:2.16.840.1.113883.4.4",
        "value": "21-3259825"
      } ],
      "active": true,
      "type": [ {
        "coding": [ {
          "system": "http://terminology.hl7.org/CodeSystem/organization-type",
          "code": "pay",
          "display": "Payer"
        } ]
      } ],
      "name": "Blue Cross Blue Shield of Texas",
      "telecom": [ {
        "system": "phone",
        "value": "(+1) 972-766-6900"
      } ],
      "address": [ {
        "use": "billing",
        "type": "postal",
        "line": [ "P.O. Box 660044" ],
        "city": "Dallas",
        "state": "TX",
        "postalCode": "75266-0044",
        "country": "USA"
      } ]
    },
    "request": {
      "method": "PUT",
      "url": "Organization/a969035e-273c-41be-a288-2b3f367bb518"
    }
  }, {
    "fullUrl": "https://madie.cms.gov/Practitioner/043436db-72cc-40b6-9685-4500d42de792",
    "resource": {
      "resourceType": "Practitioner",
      "id": "043436db-72cc-40b6-9685-4500d42de792",
      "meta": {
        "profile": [ "http://hl7.org/fhir/us/qicore/StructureDefinition/qicore-practitioner" ]
      },
      "identifier": [ {
        "system": "http://hl7.org/fhir/sid/us-npi",
        "value": "123456"
      } ],
      "name": [ {
        "family": "Evil",
        "prefix": [ "Dr" ]
      } ]
    },
    "request": {
      "method": "PUT",
      "url": "Practitioner/043436db-72cc-40b6-9685-4500d42de792"
    }
  }, {
    "fullUrl": "https://madie.cms.gov/MeasureReport/07e0f864-de8e-4855-8393-53f1d6c7e16f",
    "resource": {
      "resourceType": "MeasureReport",
      "id": "07e0f864-de8e-4855-8393-53f1d6c7e16f",
      "meta": {
        "profile": [ "http://hl7.org/fhir/us/cqfmeasures/StructureDefinition/test-case-cqfm" ]
      },
      "contained": [ {
        "resourceType": "Parameters",
        "id": "71690532-cf28-4aea-8487-dfac25505686-parameters",
        "parameter": [ {
          "name": "subject",
          "valueString": "a327cf96-81c4-46ff-9619-6fd9981bb90c"
        } ]
      } ],
      "extension": [ {
        "url": "http://hl7.org/fhir/StructureDefinition/cqf-inputParameters",
        "valueReference": {
          "reference": "#71690532-cf28-4aea-8487-dfac25505686-parameters"
        }
      }, {
        "url": "http://hl7.org/fhir/us/cqfmeasures/StructureDefinition/cqfm-testCaseDescription",
        "valueMarkdown": "Enc during MP. BMI not done due to medical Reason - \"Procedure contraindicated (situation)\", expected to pass denexcep"
      } ],
      "modifierExtension": [ {
        "url": "http://hl7.org/fhir/us/cqfmeasures/StructureDefinition/cqfm-isTestCase",
        "valueBoolean": true
      } ],
      "status": "complete",
      "type": "individual",
      "measure": "https://madie.cms.gov/Measure/CMS69FHIRPCSBMIScreenAndFollowUp",
      "period": {
        "start": "2026-01-01",
        "end": "2026-12-31"
      },
      "group": [ {
        "id": "Group_1",
        "population": [ {
          "id": "InitialPopulation_1",
          "code": {
            "coding": [ {
              "system": "http://terminology.hl7.org/CodeSystem/measure-population",
              "code": "initial-population",
              "display": "Initial Population"
            } ]
          },
          "count": 1
        }, {
          "id": "Denominator_1",
          "code": {
            "coding": [ {
              "system": "http://terminology.hl7.org/CodeSystem/measure-population",
              "code": "denominator",
              "display": "Denominator"
            } ]
          },
          "count": 1
        }, {
          "id": "DenominatorExclusion_1",
          "code": {
            "coding": [ {
              "system": "http://terminology.hl7.org/CodeSystem/measure-population",
              "code": "denominator-exclusion",
              "display": "Denominator Exclusion"
            } ]
          },
          "count": 0
        }, {
          "id": "Numerator_1",
          "code": {
            "coding": [ {
              "system": "http://terminology.hl7.org/CodeSystem/measure-population",
              "code": "numerator",
              "display": "Numerator"
            } ]
          },
          "count": 0
        }, {
          "id": "DenominatorException_1",
          "code": {
            "coding": [ {
              "system": "http://terminology.hl7.org/CodeSystem/measure-population",
              "code": "denominator-exception",
              "display": "Denominator Exception"
            } ]
          },
          "count": 1
        } ],
        "measureScore": {
          "value": 1.0
        }
      } ],
      "evaluatedResource": [ {
        "reference": "Patient/a327cf96-81c4-46ff-9619-6fd9981bb90c"
      }, {
        "reference": "Encounter/3c5ee7ff-bbcd-41c5-9428-3fba555a8fb9"
      }, {
        "reference": "Observation/bf3ad721-9ea7-4fdc-ad39-836023c7e55d"
      }, {
        "reference": "ServiceRequest/9a2a3a79-d3ee-4209-ace2-01b74f3bbb76"
      }, {
        "reference": "Coverage/6a0fb388-fd90-4163-9d89-368d1e6ed014"
      }, {
        "reference": "Organization/a969035e-273c-41be-a288-2b3f367bb518"
      }, {
        "reference": "Practitioner/043436db-72cc-40b6-9685-4500d42de792"
      } ]
    },
    "request": {
      "method": "PUT",
      "url": "MeasureReport/07e0f864-de8e-4855-8393-53f1d6c7e16f"
    }
  } ]
}