{
  "resourceType": "Bundle",
  "id": "62fbef57bf5132f90ee35d41",
  "type": "transaction",
  "entry": [ {
    "fullUrl": "https://madie.cms.gov/Patient/5ef4acf3-4b42-41fd-8793-7d1a9342865a",
    "resource": {
      "resourceType": "Patient",
      "id": "5ef4acf3-4b42-41fd-8793-7d1a9342865a",
      "meta": {
        "profile": [ "http://hl7.org/fhir/us/qicore/StructureDefinition/qicore-patient" ]
      },
      "extension": [ {
        "url": "http://hl7.org/fhir/us/core/StructureDefinition/us-core-race",
        "extension": [ {
          "url": "ombCategory",
          "valueCoding": {
            "system": "urn:oid:2.16.840.1.113883.6.238",
            "code": "2106-3",
            "display": "White",
            "userSelected": true
          }
        }, {
          "url": "text",
          "valueString": "White"
        } ]
      }, {
        "url": "http://hl7.org/fhir/us/core/StructureDefinition/us-core-ethnicity",
        "extension": [ {
          "url": "ombCategory",
          "valueCoding": {
            "system": "urn:oid:2.16.840.1.113883.6.238",
            "code": "2186-5",
            "display": "Not Hispanic or Latino",
            "userSelected": true
          }
        }, {
          "url": "text",
          "valueString": "Not Hispanic or Latino"
        } ]
      } ],
      "identifier": [ {
        "type": {
          "coding": [ {
            "system": "http://terminology.hl7.org/CodeSystem/v2-0203",
            "code": "MR"
          } ]
        },
        "system": "https://bonnie-fhir.healthit.gov/",
        "value": "62fbef57bf5132f90ee35d41"
      } ],
      "name": [ {
        "family": "DENEXPass",
        "given": [ "HospiceCondition" ]
      } ],
      "gender": "unknown",
      "birthDate": "1957-11-07"
    },
    "request": {
      "method": "PUT",
      "url": "Patient/5ef4acf3-4b42-41fd-8793-7d1a9342865a"
    }
  }, {
    "fullUrl": "https://madie.cms.gov/Encounter/6aa8cff6-1ebd-47e5-9591-51ccdd4eca51",
    "resource": {
      "resourceType": "Encounter",
      "id": "6aa8cff6-1ebd-47e5-9591-51ccdd4eca51",
      "meta": {
        "profile": [ "http://hl7.org/fhir/us/qicore/StructureDefinition/qicore-encounter" ]
      },
      "status": "finished",
      "class": {
        "system": "http://terminology.hl7.org/CodeSystem/v3-ActCode",
        "code": "AMB",
        "display": "ambulatory"
      },
      "type": [ {
        "coding": [ {
          "system": "http://snomed.info/sct",
          "version": "2022-03",
          "code": "10197000",
          "display": "Psychiatric interview and evaluation (procedure)",
          "userSelected": true
        } ]
      } ],
      "subject": {
        "reference": "Patient/5ef4acf3-4b42-41fd-8793-7d1a9342865a"
      },
      "period": {
        "start": "2026-12-31T23:30:00.000+00:00",
        "end": "2026-12-31T23:59:00.000+00:00"
      }
    },
    "request": {
      "method": "PUT",
      "url": "Encounter/6aa8cff6-1ebd-47e5-9591-51ccdd4eca51"
    }
  }, {
    "fullUrl": "https://madie.cms.gov/Procedure/ade78728-3189-4671-b6c7-c355abc1a030",
    "resource": {
      "resourceType": "Procedure",
      "id": "ade78728-3189-4671-b6c7-c355abc1a030",
      "meta": {
        "profile": [ "http://hl7.org/fhir/us/qicore/StructureDefinition/qicore-procedure" ]
      },
      "extension": [ {
        "url": "http://hl7.org/fhir/us/qicore/StructureDefinition/qicore-recorded",
        "valueDateTime": "2026-12-31T23:59:00.000+00:00"
      } ],
      "status": "completed",
      "code": {
        "coding": [ {
          "system": "http://snomed.info/sct",
          "version": "2022-03",
          "code": "182922004",
          "display": "Dietary regime (regime/therapy)",
          "userSelected": true
        } ]
      },
      "subject": {
        "reference": "Patient/5ef4acf3-4b42-41fd-8793-7d1a9342865a"
      },
      "performedDateTime": "2026-12-31T23:59:00.000+00:00"
    },
    "request": {
      "method": "PUT",
      "url": "Procedure/ade78728-3189-4671-b6c7-c355abc1a030"
    }
  }, {
    "fullUrl": "https://madie.cms.gov/Condition/c7e4c658-e61b-4651-be18-c23ffe2b9447",
    "resource": {
      "resourceType": "Condition",
      "id": "c7e4c658-e61b-4651-be18-c23ffe2b9447",
      "meta": {
        "profile": [ "http://hl7.org/fhir/us/qicore/StructureDefinition/qicore-condition-problems-health-concerns" ]
      },
      "clinicalStatus": {
        "coding": [ {
          "system": "http://terminology.hl7.org/CodeSystem/condition-clinical",
          "code": "active",
          "display": "Active",
          "userSelected": true
        } ]
      },
      "category": [ {
        "coding": [ {
          "system": "http://terminology.hl7.org/CodeSystem/condition-category",
          "code": "problem-list-item",
          "display": "Problem List Item"
        }, {
          "system": "http://snomed.info/sct",
          "code": "439401001",
          "display": "Diagnosis"
        } ]
      } ],
      "code": {
        "coding": [ {
          "system": "http://snomed.info/sct",
          "version": "2022-03",
          "code": "170936009",
          "display": "Shared care - hospice and general practitioner (finding)",
          "userSelected": true
        } ]
      },
      "subject": {
        "reference": "Patient/5ef4acf3-4b42-41fd-8793-7d1a9342865a"
      },
      "onsetDateTime": "2024-07-25T08:00:00.000+00:00"
    },
    "request": {
      "method": "PUT",
      "url": "Condition/c7e4c658-e61b-4651-be18-c23ffe2b9447"
    }
  }, {
    "fullUrl": "https://madie.cms.gov/Coverage/3bd7ec47-c66f-49e3-8817-a85f5a1edbec",
    "resource": {
      "resourceType": "Coverage",
      "id": "3bd7ec47-c66f-49e3-8817-a85f5a1edbec",
      "meta": {
        "profile": [ "http://hl7.org/fhir/us/qicore/StructureDefinition/qicore-coverage" ]
      },
      "status": "active",
      "beneficiary": {
        "reference": "Patient/5ef4acf3-4b42-41fd-8793-7d1a9342865a"
      },
      "payor": [ {
        "reference": "Organization/e6cfba43-8855-44d1-b19b-7ad40ca3a89b"
      } ]
    },
    "request": {
      "method": "PUT",
      "url": "Coverage/3bd7ec47-c66f-49e3-8817-a85f5a1edbec"
    }
  }, {
    "fullUrl": "https://madie.cms.gov/Organization/e6cfba43-8855-44d1-b19b-7ad40ca3a89b",
    "resource": {
      "resourceType": "Organization",
      "id": "e6cfba43-8855-44d1-b19b-7ad40ca3a89b",
      "meta": {
        "profile": [ "http://hl7.org/fhir/us/qicore/StructureDefinition/qicore-organization" ]
      },
      "identifier": [ {
        "use": "temp",
        "system": "urn:oid:2.16.840.1.113883.4.4",
        "value": "21-3259825"
      } ],
      "active": true,
      "type": [ {
        "coding": [ {
          "system": "http://terminology.hl7.org/CodeSystem/organization-type",
          "code": "pay",
          "display": "Payer"
        } ]
      } ],
      "name": "Blue Cross Blue Shield of Texas",
      "telecom": [ {
        "system": "phone",
        "value": "(+1) 972-766-6900"
      } ],
      "address": [ {
        "use": "billing",
        "type": "postal",
        "line": [ "P.O. Box 660044" ],
        "city": "Dallas",
        "state": "TX",
        "postalCode": "75266-0044",
        "country": "USA"
      } ]
    },
    "request": {
      "method": "PUT",
      "url": "Organization/e6cfba43-8855-44d1-b19b-7ad40ca3a89b"
    }
  }, {
    "fullUrl": "https://madie.cms.gov/MeasureReport/41d1be1d-3861-4407-906e-4b1facf6efbf",
    "resource": {
      "resourceType": "MeasureReport",
      "id": "41d1be1d-3861-4407-906e-4b1facf6efbf",
      "meta": {
        "profile": [ "http://hl7.org/fhir/us/cqfmeasures/StructureDefinition/test-case-cqfm" ]
      },
      "contained": [ {
        "resourceType": "Parameters",
        "id": "d24604ce-6353-4233-beac-f6d54465bfbb-parameters",
        "parameter": [ {
          "name": "subject",
          "valueString": "5ef4acf3-4b42-41fd-8793-7d1a9342865a"
        } ]
      } ],
      "extension": [ {
        "url": "http://hl7.org/fhir/StructureDefinition/cqf-inputParameters",
        "valueReference": {
          "reference": "#d24604ce-6353-4233-beac-f6d54465bfbb-parameters"
        }
      }, {
        "url": "http://hl7.org/fhir/us/cqfmeasures/StructureDefinition/cqfm-testCaseDescription",
        "valueMarkdown": "Enc last day of MP, pt has hospice condition"
      } ],
      "modifierExtension": [ {
        "url": "http://hl7.org/fhir/us/cqfmeasures/StructureDefinition/cqfm-isTestCase",
        "valueBoolean": true
      } ],
      "status": "complete",
      "type": "individual",
      "measure": "https://madie.cms.gov/Measure/CMS69FHIRPCSBMIScreenAndFollowUp",
      "period": {
        "start": "2026-01-01",
        "end": "2026-12-31"
      },
      "group": [ {
        "id": "Group_1",
        "population": [ {
          "id": "InitialPopulation_1",
          "code": {
            "coding": [ {
              "system": "http://terminology.hl7.org/CodeSystem/measure-population",
              "code": "initial-population",
              "display": "Initial Population"
            } ]
          },
          "count": 1
        }, {
          "id": "Denominator_1",
          "code": {
            "coding": [ {
              "system": "http://terminology.hl7.org/CodeSystem/measure-population",
              "code": "denominator",
              "display": "Denominator"
            } ]
          },
          "count": 1
        }, {
          "id": "DenominatorExclusion_1",
          "code": {
            "coding": [ {
              "system": "http://terminology.hl7.org/CodeSystem/measure-population",
              "code": "denominator-exclusion",
              "display": "Denominator Exclusion"
            } ]
          },
          "count": 1
        }, {
          "id": "Numerator_1",
          "code": {
            "coding": [ {
              "system": "http://terminology.hl7.org/CodeSystem/measure-population",
              "code": "numerator",
              "display": "Numerator"
            } ]
          },
          "count": 0
        }, {
          "id": "DenominatorException_1",
          "code": {
            "coding": [ {
              "system": "http://terminology.hl7.org/CodeSystem/measure-population",
              "code": "denominator-exception",
              "display": "Denominator Exception"
            } ]
          },
          "count": 0
        } ],
        "measureScore": {
          "value": 1.0
        }
      } ],
      "evaluatedResource": [ {
        "reference": "Patient/5ef4acf3-4b42-41fd-8793-7d1a9342865a"
      }, {
        "reference": "Encounter/6aa8cff6-1ebd-47e5-9591-51ccdd4eca51"
      }, {
        "reference": "Procedure/ade78728-3189-4671-b6c7-c355abc1a030"
      }, {
        "reference": "Condition/c7e4c658-e61b-4651-be18-c23ffe2b9447"
      }, {
        "reference": "Coverage/3bd7ec47-c66f-49e3-8817-a85f5a1edbec"
      }, {
        "reference": "Organization/e6cfba43-8855-44d1-b19b-7ad40ca3a89b"
      } ]
    },
    "request": {
      "method": "PUT",
      "url": "MeasureReport/41d1be1d-3861-4407-906e-4b1facf6efbf"
    }
  } ]
}