{
  "resourceType": "Bundle",
  "id": "Patient-10-NumFail-NoFutureFallRiskScreenedWithinMP",
  "type": "transaction",
  "entry": [ {
    "fullUrl": "https://madie.cms.gov/Patient/b6e3d7d2-0ce1-4aaf-a575-78dbc2402299",
    "resource": {
      "resourceType": "Patient",
      "id": "b6e3d7d2-0ce1-4aaf-a575-78dbc2402299",
      "meta": {
        "profile": [ "http://hl7.org/fhir/us/qicore/StructureDefinition/qicore-patient" ]
      },
      "extension": [ {
        "url": "http://hl7.org/fhir/us/core/StructureDefinition/us-core-race",
        "extension": [ {
          "url": "ombCategory",
          "valueCoding": {
            "system": "urn:oid:2.16.840.1.113883.6.238",
            "code": "2028-9",
            "display": "Asian"
          }
        }, {
          "url": "text",
          "valueString": "Asian"
        } ]
      }, {
        "url": "http://hl7.org/fhir/us/core/StructureDefinition/us-core-ethnicity",
        "extension": [ {
          "url": "ombCategory",
          "valueCoding": {
            "system": "urn:oid:2.16.840.1.113883.6.238",
            "code": "2135-2",
            "display": "Hispanic or Latino"
          }
        }, {
          "url": "text",
          "valueString": "Hispanic or Latino"
        } ]
      } ],
      "identifier": [ {
        "system": "http://hospital.smarthealthit.org",
        "value": "999999995"
      } ],
      "name": [ {
        "family": "Bertha",
        "given": [ "Betty" ]
      } ],
      "gender": "female",
      "birthDate": "1961-01-01"
    },
    "request": {
      "method": "PUT",
      "url": "Patient/b6e3d7d2-0ce1-4aaf-a575-78dbc2402299"
    }
  }, {
    "fullUrl": "https://madie.cms.gov/Encounter/1b760d61-0c07-4432-a05a-3aa9b814fe9b",
    "resource": {
      "resourceType": "Encounter",
      "id": "1b760d61-0c07-4432-a05a-3aa9b814fe9b",
      "meta": {
        "profile": [ "http://hl7.org/fhir/us/qicore/StructureDefinition/qicore-encounter" ]
      },
      "status": "finished",
      "class": {
        "system": "http://terminology.hl7.org/CodeSystem/v3-ActCode",
        "code": "AMB",
        "display": "ambulatory"
      },
      "type": [ {
        "coding": [ {
          "system": "http://snomed.info/sct",
          "code": "78831002",
          "display": "Comprehensive eye examination (procedure)"
        } ]
      } ],
      "subject": {
        "reference": "Patient/b6e3d7d2-0ce1-4aaf-a575-78dbc2402299"
      },
      "period": {
        "start": "2026-01-01T00:00:00.000+00:00",
        "end": "2026-01-01T00:15:00.000+00:00"
      }
    },
    "request": {
      "method": "PUT",
      "url": "Encounter/1b760d61-0c07-4432-a05a-3aa9b814fe9b"
    }
  }, {
    "fullUrl": "https://madie.cms.gov/Observation/0d0b75ac-d1c1-496b-a944-8aa79ce2a5fe",
    "resource": {
      "resourceType": "Observation",
      "id": "0d0b75ac-d1c1-496b-a944-8aa79ce2a5fe",
      "meta": {
        "profile": [ "http://hl7.org/fhir/us/qicore/StructureDefinition/qicore-observation-screening-assessment" ]
      },
      "status": "final",
      "category": [ {
        "coding": [ {
          "system": "http://terminology.hl7.org/CodeSystem/observation-category",
          "code": "survey"
        } ]
      } ],
      "code": {
        "coding": [ {
          "system": "http://loinc.org",
          "code": "52552-7",
          "display": "Falls in the past year"
        } ]
      },
      "subject": {
        "reference": "Patient/b6e3d7d2-0ce1-4aaf-a575-78dbc2402299"
      },
      "effectivePeriod": {
        "start": "2025-12-31T23:59:00.000+00:00",
        "end": "2025-12-31T23:59:59.000+00:00"
      },
      "valueCodeableConcept": {
        "coding": [ {
          "system": "http://snomed.info/sct",
          "code": "373066001",
          "display": "Yes (qualifier value)"
        } ]
      }
    },
    "request": {
      "method": "PUT",
      "url": "Observation/0d0b75ac-d1c1-496b-a944-8aa79ce2a5fe"
    }
  }, {
    "fullUrl": "https://madie.cms.gov/MeasureReport/ad06a4e9-a95f-47a1-9486-6e3ce926bc73",
    "resource": {
      "resourceType": "MeasureReport",
      "id": "ad06a4e9-a95f-47a1-9486-6e3ce926bc73",
      "meta": {
        "profile": [ "http://hl7.org/fhir/us/cqfmeasures/StructureDefinition/test-case-cqfm" ]
      },
      "contained": [ {
        "resourceType": "Parameters",
        "id": "eed5ad3c-9d32-495f-9d1f-80f7d23b6bd0-parameters",
        "parameter": [ {
          "name": "subject",
          "valueString": "b6e3d7d2-0ce1-4aaf-a575-78dbc2402299"
        } ]
      } ],
      "extension": [ {
        "url": "http://hl7.org/fhir/StructureDefinition/cqf-inputParameters",
        "valueReference": {
          "reference": "#eed5ad3c-9d32-495f-9d1f-80f7d23b6bd0-parameters"
        }
      }, {
        "url": "http://hl7.org/fhir/us/cqfmeasures/StructureDefinition/cqfm-testCaseDescription",
        "valueMarkdown": "Future fall risk screening ends before MP (edge case)."
      } ],
      "modifierExtension": [ {
        "url": "http://hl7.org/fhir/us/cqfmeasures/StructureDefinition/cqfm-isTestCase",
        "valueBoolean": true
      } ],
      "status": "complete",
      "type": "individual",
      "measure": "https://madie.cms.gov/Measure/CMS139FHIRFallsScreeningForFutureFallRisk",
      "period": {
        "start": "2026-01-01",
        "end": "2026-12-31"
      },
      "group": [ {
        "id": "Group_1",
        "population": [ {
          "id": "InitialPopulation_1",
          "code": {
            "coding": [ {
              "system": "http://terminology.hl7.org/CodeSystem/measure-population",
              "code": "initial-population",
              "display": "Initial Population"
            } ]
          },
          "count": 1
        }, {
          "id": "Denominator_1",
          "code": {
            "coding": [ {
              "system": "http://terminology.hl7.org/CodeSystem/measure-population",
              "code": "denominator",
              "display": "Denominator"
            } ]
          },
          "count": 1
        }, {
          "id": "DenominatorExclusion_1",
          "code": {
            "coding": [ {
              "system": "http://terminology.hl7.org/CodeSystem/measure-population",
              "code": "denominator-exclusion",
              "display": "Denominator Exclusion"
            } ]
          },
          "count": 0
        }, {
          "id": "Numerator_1",
          "code": {
            "coding": [ {
              "system": "http://terminology.hl7.org/CodeSystem/measure-population",
              "code": "numerator",
              "display": "Numerator"
            } ]
          },
          "count": 0
        } ],
        "measureScore": {
          "value": 1.0
        }
      } ],
      "evaluatedResource": [ {
        "reference": "Patient/b6e3d7d2-0ce1-4aaf-a575-78dbc2402299"
      }, {
        "reference": "Encounter/1b760d61-0c07-4432-a05a-3aa9b814fe9b"
      }, {
        "reference": "Observation/0d0b75ac-d1c1-496b-a944-8aa79ce2a5fe"
      } ]
    },
    "request": {
      "method": "PUT",
      "url": "MeasureReport/ad06a4e9-a95f-47a1-9486-6e3ce926bc73"
    }
  } ]
}