{
  "resourceType": "Bundle",
  "id": "62df0f195db91778f87ca907",
  "type": "transaction",
  "entry": [ {
    "fullUrl": "https://madie.cms.gov/Patient/f5ae6269-d09b-47f8-a519-f1a8a81549fc",
    "resource": {
      "resourceType": "Patient",
      "id": "f5ae6269-d09b-47f8-a519-f1a8a81549fc",
      "meta": {
        "profile": [ "http://hl7.org/fhir/us/qicore/StructureDefinition/qicore-patient" ]
      },
      "extension": [ {
        "url": "http://hl7.org/fhir/us/core/StructureDefinition/us-core-race",
        "extension": [ {
          "url": "ombCategory",
          "valueCoding": {
            "system": "urn:oid:2.16.840.1.113883.6.238",
            "code": "2106-3",
            "display": "White",
            "userSelected": true
          }
        }, {
          "url": "text",
          "valueString": "White"
        } ]
      }, {
        "url": "http://hl7.org/fhir/us/core/StructureDefinition/us-core-ethnicity",
        "extension": [ {
          "url": "ombCategory",
          "valueCoding": {
            "system": "urn:oid:2.16.840.1.113883.6.238",
            "code": "2186-5",
            "display": "Not Hispanic or Latino",
            "userSelected": true
          }
        }, {
          "url": "text",
          "valueString": "Not Hispanic or Latino"
        } ]
      } ],
      "identifier": [ {
        "type": {
          "coding": [ {
            "system": "http://terminology.hl7.org/CodeSystem/v2-0203",
            "code": "MR"
          } ]
        },
        "system": "https://bonnie-fhir.healthit.gov/",
        "value": "62df0f195db91778f87ca907"
      } ],
      "name": [ {
        "family": "NUMERPass",
        "given": [ "HighBMIAndInterventionPerformedCondition" ]
      } ],
      "gender": "unknown",
      "birthDate": "1957-11-07"
    },
    "request": {
      "method": "PUT",
      "url": "Patient/f5ae6269-d09b-47f8-a519-f1a8a81549fc"
    }
  }, {
    "fullUrl": "https://madie.cms.gov/Encounter/a6d9fdc7-90e3-4254-b844-c158817d8604",
    "resource": {
      "resourceType": "Encounter",
      "id": "a6d9fdc7-90e3-4254-b844-c158817d8604",
      "meta": {
        "profile": [ "http://hl7.org/fhir/us/qicore/StructureDefinition/qicore-encounter" ]
      },
      "status": "finished",
      "class": {
        "system": "http://terminology.hl7.org/CodeSystem/v3-ActCode",
        "code": "AMB",
        "display": "ambulatory"
      },
      "type": [ {
        "coding": [ {
          "system": "http://snomed.info/sct",
          "version": "2022-03",
          "code": "10197000",
          "display": "Psychiatric interview and evaluation (procedure)",
          "userSelected": true
        } ]
      } ],
      "subject": {
        "reference": "Patient/f5ae6269-d09b-47f8-a519-f1a8a81549fc"
      },
      "period": {
        "start": "2026-01-01T00:00:00.000+00:00",
        "end": "2026-01-01T00:30:00.000+00:00"
      }
    },
    "request": {
      "method": "PUT",
      "url": "Encounter/a6d9fdc7-90e3-4254-b844-c158817d8604"
    }
  }, {
    "fullUrl": "https://madie.cms.gov/Observation/520947c1-5fda-4973-9c68-57ae700ff80e",
    "resource": {
      "resourceType": "Observation",
      "id": "520947c1-5fda-4973-9c68-57ae700ff80e",
      "meta": {
        "profile": [ "http://hl7.org/fhir/us/core/StructureDefinition/us-core-bmi" ]
      },
      "status": "final",
      "category": [ {
        "coding": [ {
          "system": "http://terminology.hl7.org/CodeSystem/observation-category",
          "code": "vital-signs",
          "display": "Vital Signs"
        } ]
      } ],
      "code": {
        "coding": [ {
          "system": "http://loinc.org",
          "code": "39156-5",
          "display": "Body mass index (BMI) [Ratio]",
          "userSelected": true
        } ]
      },
      "subject": {
        "reference": "Patient/f5ae6269-d09b-47f8-a519-f1a8a81549fc"
      },
      "effectiveDateTime": "2026-01-01T00:30:00.000+00:00",
      "valueQuantity": {
        "value": 25.0,
        "unit": "kg/m2",
        "system": "http://unitsofmeasure.org",
        "code": "kg/m2"
      }
    },
    "request": {
      "method": "PUT",
      "url": "Observation/520947c1-5fda-4973-9c68-57ae700ff80e"
    }
  }, {
    "fullUrl": "https://madie.cms.gov/Procedure/d9ded380-5deb-4b4b-8d1c-8e65088db41a",
    "resource": {
      "resourceType": "Procedure",
      "id": "d9ded380-5deb-4b4b-8d1c-8e65088db41a",
      "meta": {
        "profile": [ "http://hl7.org/fhir/us/qicore/StructureDefinition/qicore-procedure" ]
      },
      "extension": [ {
        "url": "http://hl7.org/fhir/us/qicore/StructureDefinition/qicore-recorded",
        "valueDateTime": "2026-01-01T00:30:00.000+00:00"
      } ],
      "status": "completed",
      "code": {
        "coding": [ {
          "system": "http://snomed.info/sct",
          "version": "2022-03",
          "code": "182922004",
          "display": "Dietary regime (regime/therapy)",
          "userSelected": true
        } ]
      },
      "subject": {
        "reference": "Patient/f5ae6269-d09b-47f8-a519-f1a8a81549fc"
      },
      "performedDateTime": "2026-01-01T00:30:00.000+00:00"
    },
    "request": {
      "method": "PUT",
      "url": "Procedure/d9ded380-5deb-4b4b-8d1c-8e65088db41a"
    }
  }, {
    "fullUrl": "https://madie.cms.gov/Condition/503eef61-bd7f-4aad-98d0-6b7f40ae0eed",
    "resource": {
      "resourceType": "Condition",
      "id": "503eef61-bd7f-4aad-98d0-6b7f40ae0eed",
      "meta": {
        "profile": [ "http://hl7.org/fhir/us/qicore/StructureDefinition/qicore-condition-problems-health-concerns" ]
      },
      "clinicalStatus": {
        "coding": [ {
          "system": "http://terminology.hl7.org/CodeSystem/condition-clinical",
          "code": "active",
          "display": "active",
          "userSelected": true
        } ]
      },
      "category": [ {
        "coding": [ {
          "system": "http://hl7.org/fhir/us/core/CodeSystem/condition-category",
          "code": "health-concern",
          "display": "Health Concern"
        }, {
          "system": "http://snomed.info/sct",
          "code": "439401001",
          "display": "Diagnosis"
        } ]
      } ],
      "code": {
        "coding": [ {
          "system": "http://snomed.info/sct",
          "version": "2022-03",
          "code": "162863004",
          "display": "Body mass index 25-29 - overweight (finding)",
          "userSelected": true
        } ]
      },
      "subject": {
        "reference": "Patient/f5ae6269-d09b-47f8-a519-f1a8a81549fc"
      },
      "onsetDateTime": "2026-01-01T00:30:00.000+00:00",
      "recordedDate": "2026-01-01T00:30:00.000+00:00"
    },
    "request": {
      "method": "PUT",
      "url": "Condition/503eef61-bd7f-4aad-98d0-6b7f40ae0eed"
    }
  }, {
    "fullUrl": "https://madie.cms.gov/Coverage/4e02e8ac-7def-4018-bade-6af207ea670b",
    "resource": {
      "resourceType": "Coverage",
      "id": "4e02e8ac-7def-4018-bade-6af207ea670b",
      "meta": {
        "profile": [ "http://hl7.org/fhir/us/qicore/StructureDefinition/qicore-coverage" ]
      },
      "status": "active",
      "beneficiary": {
        "reference": "Patient/f5ae6269-d09b-47f8-a519-f1a8a81549fc"
      },
      "payor": [ {
        "reference": "Organization/b7608bce-b772-4ead-8c37-b5f036055815"
      } ]
    },
    "request": {
      "method": "PUT",
      "url": "Coverage/4e02e8ac-7def-4018-bade-6af207ea670b"
    }
  }, {
    "fullUrl": "https://madie.cms.gov/Organization/b7608bce-b772-4ead-8c37-b5f036055815",
    "resource": {
      "resourceType": "Organization",
      "id": "b7608bce-b772-4ead-8c37-b5f036055815",
      "meta": {
        "profile": [ "http://hl7.org/fhir/us/qicore/StructureDefinition/qicore-organization" ]
      },
      "identifier": [ {
        "use": "temp",
        "system": "urn:oid:2.16.840.1.113883.4.4",
        "value": "21-3259825"
      } ],
      "active": true,
      "type": [ {
        "coding": [ {
          "system": "http://terminology.hl7.org/CodeSystem/organization-type",
          "code": "pay",
          "display": "Payer"
        } ]
      } ],
      "name": "Blue Cross Blue Shield of Texas",
      "telecom": [ {
        "system": "phone",
        "value": "(+1) 972-766-6900"
      } ],
      "address": [ {
        "use": "billing",
        "type": "postal",
        "line": [ "P.O. Box 660044" ],
        "city": "Dallas",
        "state": "TX",
        "postalCode": "75266-0044",
        "country": "USA"
      } ]
    },
    "request": {
      "method": "PUT",
      "url": "Organization/b7608bce-b772-4ead-8c37-b5f036055815"
    }
  }, {
    "fullUrl": "https://madie.cms.gov/MeasureReport/a48fbe9d-8dcc-46b0-a89d-5b42f502f140",
    "resource": {
      "resourceType": "MeasureReport",
      "id": "a48fbe9d-8dcc-46b0-a89d-5b42f502f140",
      "meta": {
        "profile": [ "http://hl7.org/fhir/us/cqfmeasures/StructureDefinition/test-case-cqfm" ]
      },
      "contained": [ {
        "resourceType": "Parameters",
        "id": "579032d4-305c-44d4-b512-63c5ccc67a62-parameters",
        "parameter": [ {
          "name": "subject",
          "valueString": "f5ae6269-d09b-47f8-a519-f1a8a81549fc"
        } ]
      } ],
      "extension": [ {
        "url": "http://hl7.org/fhir/StructureDefinition/cqf-inputParameters",
        "valueReference": {
          "reference": "#579032d4-305c-44d4-b512-63c5ccc67a62-parameters"
        }
      }, {
        "url": "http://hl7.org/fhir/us/cqfmeasures/StructureDefinition/cqfm-testCaseDescription",
        "valueMarkdown": "Enc first day of Mp, BMI 25 kg/m2, dietary regime performed date"
      } ],
      "modifierExtension": [ {
        "url": "http://hl7.org/fhir/us/cqfmeasures/StructureDefinition/cqfm-isTestCase",
        "valueBoolean": true
      } ],
      "status": "complete",
      "type": "individual",
      "measure": "https://madie.cms.gov/Measure/CMS69FHIRPCSBMIScreenAndFollowUp",
      "period": {
        "start": "2026-01-01",
        "end": "2026-12-31"
      },
      "group": [ {
        "id": "Group_1",
        "population": [ {
          "id": "InitialPopulation_1",
          "code": {
            "coding": [ {
              "system": "http://terminology.hl7.org/CodeSystem/measure-population",
              "code": "initial-population",
              "display": "Initial Population"
            } ]
          },
          "count": 1
        }, {
          "id": "Denominator_1",
          "code": {
            "coding": [ {
              "system": "http://terminology.hl7.org/CodeSystem/measure-population",
              "code": "denominator",
              "display": "Denominator"
            } ]
          },
          "count": 1
        }, {
          "id": "DenominatorExclusion_1",
          "code": {
            "coding": [ {
              "system": "http://terminology.hl7.org/CodeSystem/measure-population",
              "code": "denominator-exclusion",
              "display": "Denominator Exclusion"
            } ]
          },
          "count": 0
        }, {
          "id": "Numerator_1",
          "code": {
            "coding": [ {
              "system": "http://terminology.hl7.org/CodeSystem/measure-population",
              "code": "numerator",
              "display": "Numerator"
            } ]
          },
          "count": 1
        }, {
          "id": "DenominatorException_1",
          "code": {
            "coding": [ {
              "system": "http://terminology.hl7.org/CodeSystem/measure-population",
              "code": "denominator-exception",
              "display": "Denominator Exception"
            } ]
          },
          "count": 0
        } ],
        "measureScore": {
          "value": 1.0
        }
      } ],
      "evaluatedResource": [ {
        "reference": "Patient/f5ae6269-d09b-47f8-a519-f1a8a81549fc"
      }, {
        "reference": "Encounter/a6d9fdc7-90e3-4254-b844-c158817d8604"
      }, {
        "reference": "Observation/520947c1-5fda-4973-9c68-57ae700ff80e"
      }, {
        "reference": "Procedure/d9ded380-5deb-4b4b-8d1c-8e65088db41a"
      }, {
        "reference": "Condition/503eef61-bd7f-4aad-98d0-6b7f40ae0eed"
      }, {
        "reference": "Coverage/4e02e8ac-7def-4018-bade-6af207ea670b"
      }, {
        "reference": "Organization/b7608bce-b772-4ead-8c37-b5f036055815"
      } ]
    },
    "request": {
      "method": "PUT",
      "url": "MeasureReport/a48fbe9d-8dcc-46b0-a89d-5b42f502f140"
    }
  } ]
}