{
  "resourceType": "Bundle",
  "id": "62fc1dcfc4f1a6ed8db31c2b",
  "type": "transaction",
  "entry": [ {
    "fullUrl": "https://madie.cms.gov/Patient/8835a50b-0a0f-4e2f-94fa-7c180cd7f905",
    "resource": {
      "resourceType": "Patient",
      "id": "8835a50b-0a0f-4e2f-94fa-7c180cd7f905",
      "meta": {
        "profile": [ "http://hl7.org/fhir/us/qicore/StructureDefinition/qicore-patient" ]
      },
      "extension": [ {
        "url": "http://hl7.org/fhir/us/core/StructureDefinition/us-core-race",
        "extension": [ {
          "url": "ombCategory",
          "valueCoding": {
            "system": "urn:oid:2.16.840.1.113883.6.238",
            "code": "2106-3",
            "display": "White",
            "userSelected": true
          }
        }, {
          "url": "text",
          "valueString": "White"
        } ]
      }, {
        "url": "http://hl7.org/fhir/us/core/StructureDefinition/us-core-ethnicity",
        "extension": [ {
          "url": "ombCategory",
          "valueCoding": {
            "system": "urn:oid:2.16.840.1.113883.6.238",
            "code": "2186-5",
            "display": "Not Hispanic or Latino",
            "userSelected": true
          }
        }, {
          "url": "text",
          "valueString": "Not Hispanic or Latino"
        } ]
      } ],
      "identifier": [ {
        "type": {
          "coding": [ {
            "system": "http://terminology.hl7.org/CodeSystem/v2-0203",
            "code": "MR"
          } ]
        },
        "system": "https://bonnie-fhir.healthit.gov/",
        "value": "62fc1dcfc4f1a6ed8db31c2b"
      } ],
      "name": [ {
        "family": "NUMERPass",
        "given": [ "LowBMIAndInterventionOrderedCondition2" ]
      } ],
      "gender": "unknown",
      "birthDate": "1957-11-07"
    },
    "request": {
      "method": "PUT",
      "url": "Patient/8835a50b-0a0f-4e2f-94fa-7c180cd7f905"
    }
  }, {
    "fullUrl": "https://madie.cms.gov/Encounter/372c7f53-15f6-49bd-845d-365c48f46f74",
    "resource": {
      "resourceType": "Encounter",
      "id": "372c7f53-15f6-49bd-845d-365c48f46f74",
      "meta": {
        "profile": [ "http://hl7.org/fhir/us/qicore/StructureDefinition/qicore-encounter" ]
      },
      "status": "finished",
      "class": {
        "system": "http://terminology.hl7.org/CodeSystem/v3-ActCode",
        "code": "AMB",
        "display": "ambulatory"
      },
      "type": [ {
        "coding": [ {
          "system": "http://snomed.info/sct",
          "version": "2022-03",
          "code": "10197000",
          "display": "Psychiatric interview and evaluation (procedure)",
          "userSelected": true
        } ]
      } ],
      "subject": {
        "reference": "Patient/8835a50b-0a0f-4e2f-94fa-7c180cd7f905"
      },
      "period": {
        "start": "2026-06-15T08:00:00.000+00:00",
        "end": "2026-06-15T08:15:00.000+00:00"
      }
    },
    "request": {
      "method": "PUT",
      "url": "Encounter/372c7f53-15f6-49bd-845d-365c48f46f74"
    }
  }, {
    "fullUrl": "https://madie.cms.gov/Observation/1782bbf5-fd21-43c3-bf27-3b8a56e90652",
    "resource": {
      "resourceType": "Observation",
      "id": "1782bbf5-fd21-43c3-bf27-3b8a56e90652",
      "meta": {
        "profile": [ "http://hl7.org/fhir/us/core/StructureDefinition/us-core-bmi" ]
      },
      "status": "final",
      "category": [ {
        "coding": [ {
          "system": "http://terminology.hl7.org/CodeSystem/observation-category",
          "code": "vital-signs",
          "display": "Vital Signs"
        } ]
      } ],
      "code": {
        "coding": [ {
          "system": "http://loinc.org",
          "code": "39156-5",
          "display": "Body mass index (BMI) [Ratio]",
          "userSelected": true
        } ]
      },
      "subject": {
        "reference": "Patient/8835a50b-0a0f-4e2f-94fa-7c180cd7f905"
      },
      "effectiveDateTime": "2026-06-15T08:05:00.000+00:00",
      "valueQuantity": {
        "value": 17,
        "unit": "kg/m2",
        "system": "http://unitsofmeasure.org",
        "code": "kg/m2"
      }
    },
    "request": {
      "method": "PUT",
      "url": "Observation/1782bbf5-fd21-43c3-bf27-3b8a56e90652"
    }
  }, {
    "fullUrl": "https://madie.cms.gov/Condition/d306c644-85a0-4406-b53f-ac1875dce8a1",
    "resource": {
      "resourceType": "Condition",
      "id": "d306c644-85a0-4406-b53f-ac1875dce8a1",
      "meta": {
        "profile": [ "http://hl7.org/fhir/us/qicore/StructureDefinition/qicore-condition-problems-health-concerns" ]
      },
      "clinicalStatus": {
        "coding": [ {
          "system": "http://terminology.hl7.org/CodeSystem/condition-clinical",
          "code": "recurrence",
          "display": "recurrence",
          "userSelected": true
        } ]
      },
      "category": [ {
        "coding": [ {
          "system": "http://hl7.org/fhir/us/core/CodeSystem/condition-category",
          "code": "health-concern",
          "display": "Health Concern"
        }, {
          "system": "http://snomed.info/sct",
          "code": "439401001",
          "display": "Diagnosis"
        } ]
      } ],
      "code": {
        "coding": [ {
          "system": "http://snomed.info/sct",
          "version": "2022-03",
          "code": "248342006",
          "display": "Underweight (finding)",
          "userSelected": true
        } ]
      },
      "subject": {
        "reference": "Patient/8835a50b-0a0f-4e2f-94fa-7c180cd7f905"
      },
      "onsetDateTime": "2021-11-30T08:00:00.000+00:00"
    },
    "request": {
      "method": "PUT",
      "url": "Condition/d306c644-85a0-4406-b53f-ac1875dce8a1"
    }
  }, {
    "fullUrl": "https://madie.cms.gov/ServiceRequest/1221430b-e40d-4625-a86d-e58ebe6fc6ff",
    "resource": {
      "resourceType": "ServiceRequest",
      "id": "1221430b-e40d-4625-a86d-e58ebe6fc6ff",
      "meta": {
        "profile": [ "http://hl7.org/fhir/us/qicore/StructureDefinition/qicore-servicerequest" ]
      },
      "status": "completed",
      "intent": "order",
      "code": {
        "coding": [ {
          "system": "http://snomed.info/sct",
          "version": "2022-03",
          "code": "183515008",
          "display": "Referral to physician (procedure)",
          "userSelected": true
        } ]
      },
      "subject": {
        "reference": "Patient/8835a50b-0a0f-4e2f-94fa-7c180cd7f905"
      },
      "authoredOn": "2026-08-16T08:00:00.000+00:00"
    },
    "request": {
      "method": "PUT",
      "url": "ServiceRequest/1221430b-e40d-4625-a86d-e58ebe6fc6ff"
    }
  }, {
    "fullUrl": "https://madie.cms.gov/Coverage/663de412-c0c9-4ff9-86bf-32bf51970a5d",
    "resource": {
      "resourceType": "Coverage",
      "id": "663de412-c0c9-4ff9-86bf-32bf51970a5d",
      "meta": {
        "profile": [ "http://hl7.org/fhir/us/qicore/StructureDefinition/qicore-coverage" ]
      },
      "status": "active",
      "beneficiary": {
        "reference": "Patient/8835a50b-0a0f-4e2f-94fa-7c180cd7f905"
      },
      "payor": [ {
        "reference": "Organization/d5b63285-58f0-4002-a1db-ee56a816b1b7"
      } ]
    },
    "request": {
      "method": "PUT",
      "url": "Coverage/663de412-c0c9-4ff9-86bf-32bf51970a5d"
    }
  }, {
    "fullUrl": "https://madie.cms.gov/Organization/d5b63285-58f0-4002-a1db-ee56a816b1b7",
    "resource": {
      "resourceType": "Organization",
      "id": "d5b63285-58f0-4002-a1db-ee56a816b1b7",
      "meta": {
        "profile": [ "http://hl7.org/fhir/us/qicore/StructureDefinition/qicore-organization" ]
      },
      "identifier": [ {
        "use": "temp",
        "system": "urn:oid:2.16.840.1.113883.4.4",
        "value": "21-3259825"
      } ],
      "active": true,
      "type": [ {
        "coding": [ {
          "system": "http://terminology.hl7.org/CodeSystem/organization-type",
          "code": "pay",
          "display": "Payer"
        } ]
      } ],
      "name": "Blue Cross Blue Shield of Texas",
      "telecom": [ {
        "system": "phone",
        "value": "(+1) 972-766-6900"
      } ],
      "address": [ {
        "use": "billing",
        "type": "postal",
        "line": [ "P.O. Box 660044" ],
        "city": "Dallas",
        "state": "TX",
        "postalCode": "75266-0044",
        "country": "USA"
      } ]
    },
    "request": {
      "method": "PUT",
      "url": "Organization/d5b63285-58f0-4002-a1db-ee56a816b1b7"
    }
  }, {
    "fullUrl": "https://madie.cms.gov/MeasureReport/ef68be6f-490d-4cdd-aeff-00c2e06b3cd8",
    "resource": {
      "resourceType": "MeasureReport",
      "id": "ef68be6f-490d-4cdd-aeff-00c2e06b3cd8",
      "meta": {
        "profile": [ "http://hl7.org/fhir/us/cqfmeasures/StructureDefinition/test-case-cqfm" ]
      },
      "contained": [ {
        "resourceType": "Parameters",
        "id": "2c7432d4-3360-4187-8a64-47ea12acf874-parameters",
        "parameter": [ {
          "name": "subject",
          "valueString": "8835a50b-0a0f-4e2f-94fa-7c180cd7f905"
        } ]
      } ],
      "extension": [ {
        "url": "http://hl7.org/fhir/StructureDefinition/cqf-inputParameters",
        "valueReference": {
          "reference": "#2c7432d4-3360-4187-8a64-47ea12acf874-parameters"
        }
      }, {
        "url": "http://hl7.org/fhir/us/cqfmeasures/StructureDefinition/cqfm-testCaseDescription",
        "valueMarkdown": "Adult, ambulatory enc., Low BMI at 17 kg/m2, condition \"underweight\" documented - recurrence with referral ordered "
      } ],
      "modifierExtension": [ {
        "url": "http://hl7.org/fhir/us/cqfmeasures/StructureDefinition/cqfm-isTestCase",
        "valueBoolean": true
      } ],
      "status": "complete",
      "type": "individual",
      "measure": "https://madie.cms.gov/Measure/CMS69FHIRPCSBMIScreenAndFollowUp",
      "period": {
        "start": "2026-01-01",
        "end": "2026-12-31"
      },
      "group": [ {
        "id": "Group_1",
        "population": [ {
          "id": "InitialPopulation_1",
          "code": {
            "coding": [ {
              "system": "http://terminology.hl7.org/CodeSystem/measure-population",
              "code": "initial-population",
              "display": "Initial Population"
            } ]
          },
          "count": 1
        }, {
          "id": "Denominator_1",
          "code": {
            "coding": [ {
              "system": "http://terminology.hl7.org/CodeSystem/measure-population",
              "code": "denominator",
              "display": "Denominator"
            } ]
          },
          "count": 1
        }, {
          "id": "DenominatorExclusion_1",
          "code": {
            "coding": [ {
              "system": "http://terminology.hl7.org/CodeSystem/measure-population",
              "code": "denominator-exclusion",
              "display": "Denominator Exclusion"
            } ]
          },
          "count": 0
        }, {
          "id": "Numerator_1",
          "code": {
            "coding": [ {
              "system": "http://terminology.hl7.org/CodeSystem/measure-population",
              "code": "numerator",
              "display": "Numerator"
            } ]
          },
          "count": 1
        }, {
          "id": "DenominatorException_1",
          "code": {
            "coding": [ {
              "system": "http://terminology.hl7.org/CodeSystem/measure-population",
              "code": "denominator-exception",
              "display": "Denominator Exception"
            } ]
          },
          "count": 0
        } ],
        "measureScore": {
          "value": 1.0
        }
      } ],
      "evaluatedResource": [ {
        "reference": "Patient/8835a50b-0a0f-4e2f-94fa-7c180cd7f905"
      }, {
        "reference": "Encounter/372c7f53-15f6-49bd-845d-365c48f46f74"
      }, {
        "reference": "Observation/1782bbf5-fd21-43c3-bf27-3b8a56e90652"
      }, {
        "reference": "Condition/d306c644-85a0-4406-b53f-ac1875dce8a1"
      }, {
        "reference": "ServiceRequest/1221430b-e40d-4625-a86d-e58ebe6fc6ff"
      }, {
        "reference": "Coverage/663de412-c0c9-4ff9-86bf-32bf51970a5d"
      }, {
        "reference": "Organization/d5b63285-58f0-4002-a1db-ee56a816b1b7"
      } ]
    },
    "request": {
      "method": "PUT",
      "url": "MeasureReport/ef68be6f-490d-4cdd-aeff-00c2e06b3cd8"
    }
  } ]
}