{
  "resourceType": "Bundle",
  "id": "62aa507fc4be4c506d4a533a",
  "type": "transaction",
  "entry": [ {
    "fullUrl": "https://madie.cms.gov/Patient/8e130410-9710-45f3-ac56-e69dee0755d9",
    "resource": {
      "resourceType": "Patient",
      "id": "8e130410-9710-45f3-ac56-e69dee0755d9",
      "meta": {
        "profile": [ "http://hl7.org/fhir/us/qicore/StructureDefinition/qicore-patient" ]
      },
      "extension": [ {
        "url": "http://hl7.org/fhir/us/core/StructureDefinition/us-core-race",
        "extension": [ {
          "url": "ombCategory",
          "valueCoding": {
            "system": "urn:oid:2.16.840.1.113883.6.238",
            "code": "1002-5",
            "display": "American Indian or Alaska Native",
            "userSelected": true
          }
        }, {
          "url": "text",
          "valueString": "American Indian or Alaska Native"
        } ]
      }, {
        "url": "http://hl7.org/fhir/us/core/StructureDefinition/us-core-ethnicity",
        "extension": [ {
          "url": "ombCategory",
          "valueCoding": {
            "system": "urn:oid:2.16.840.1.113883.6.238",
            "code": "2186-5",
            "display": "Not Hispanic or Latino",
            "userSelected": true
          }
        }, {
          "url": "text",
          "valueString": "Not Hispanic or Latino"
        } ]
      } ],
      "identifier": [ {
        "type": {
          "coding": [ {
            "system": "http://terminology.hl7.org/CodeSystem/v2-0203",
            "code": "MR"
          } ]
        },
        "system": "https://bonnie-fhir.healthit.gov/",
        "value": "62aa507fc4be4c506d4a533a"
      } ],
      "name": [ {
        "family": "DENOMPass",
        "given": [ "Patient18LastDayOfEncounter" ]
      } ],
      "gender": "male",
      "birthDate": "2005-06-15"
    },
    "request": {
      "method": "PUT",
      "url": "Patient/8e130410-9710-45f3-ac56-e69dee0755d9"
    }
  }, {
    "fullUrl": "https://madie.cms.gov/Encounter/50c02911-3477-43b4-9792-8040f1b9f685",
    "resource": {
      "resourceType": "Encounter",
      "id": "50c02911-3477-43b4-9792-8040f1b9f685",
      "meta": {
        "profile": [ "http://hl7.org/fhir/us/qicore/StructureDefinition/qicore-encounter" ]
      },
      "status": "finished",
      "class": {
        "system": "http://terminology.hl7.org/CodeSystem/v3-ActCode",
        "code": "AMB",
        "display": "ambulatory"
      },
      "type": [ {
        "coding": [ {
          "system": "http://snomed.info/sct",
          "version": "2022-03",
          "code": "10197000",
          "display": "Psychiatric interview and evaluation (procedure)",
          "userSelected": true
        } ]
      } ],
      "subject": {
        "reference": "Patient/8e130410-9710-45f3-ac56-e69dee0755d9"
      },
      "period": {
        "start": "2026-12-31T23:30:00.000+00:00",
        "end": "2026-12-31T23:59:00.000+00:00"
      }
    },
    "request": {
      "method": "PUT",
      "url": "Encounter/50c02911-3477-43b4-9792-8040f1b9f685"
    }
  }, {
    "fullUrl": "https://madie.cms.gov/Coverage/80ac8808-5af5-4947-92dc-fde7fe6b9198",
    "resource": {
      "resourceType": "Coverage",
      "id": "80ac8808-5af5-4947-92dc-fde7fe6b9198",
      "meta": {
        "profile": [ "http://hl7.org/fhir/us/qicore/StructureDefinition/qicore-coverage" ]
      },
      "status": "active",
      "beneficiary": {
        "reference": "Patient/8e130410-9710-45f3-ac56-e69dee0755d9"
      },
      "payor": [ {
        "reference": "Organization/84517367-662d-43bd-bbe3-07382accc714"
      } ]
    },
    "request": {
      "method": "PUT",
      "url": "Coverage/80ac8808-5af5-4947-92dc-fde7fe6b9198"
    }
  }, {
    "fullUrl": "https://madie.cms.gov/Organization/84517367-662d-43bd-bbe3-07382accc714",
    "resource": {
      "resourceType": "Organization",
      "id": "84517367-662d-43bd-bbe3-07382accc714",
      "meta": {
        "profile": [ "http://hl7.org/fhir/us/qicore/StructureDefinition/qicore-organization" ]
      },
      "identifier": [ {
        "use": "temp",
        "system": "urn:oid:2.16.840.1.113883.4.4",
        "value": "21-3259825"
      } ],
      "active": true,
      "type": [ {
        "coding": [ {
          "system": "http://terminology.hl7.org/CodeSystem/organization-type",
          "code": "pay",
          "display": "Payer"
        } ]
      } ],
      "name": "Blue Cross Blue Shield of Texas",
      "telecom": [ {
        "system": "phone",
        "value": "(+1) 972-766-6900"
      } ],
      "address": [ {
        "use": "billing",
        "type": "postal",
        "line": [ "P.O. Box 660044" ],
        "city": "Dallas",
        "state": "TX",
        "postalCode": "75266-0044",
        "country": "USA"
      } ]
    },
    "request": {
      "method": "PUT",
      "url": "Organization/84517367-662d-43bd-bbe3-07382accc714"
    }
  }, {
    "fullUrl": "https://madie.cms.gov/MeasureReport/47c5ed1d-f848-414c-912e-725ccbedd661",
    "resource": {
      "resourceType": "MeasureReport",
      "id": "47c5ed1d-f848-414c-912e-725ccbedd661",
      "meta": {
        "profile": [ "http://hl7.org/fhir/us/cqfmeasures/StructureDefinition/test-case-cqfm" ]
      },
      "contained": [ {
        "resourceType": "Parameters",
        "id": "43896bb9-0601-4852-90f9-dc4ce0373031-parameters",
        "parameter": [ {
          "name": "subject",
          "valueString": "8e130410-9710-45f3-ac56-e69dee0755d9"
        } ]
      } ],
      "extension": [ {
        "url": "http://hl7.org/fhir/StructureDefinition/cqf-inputParameters",
        "valueReference": {
          "reference": "#43896bb9-0601-4852-90f9-dc4ce0373031-parameters"
        }
      }, {
        "url": "http://hl7.org/fhir/us/cqfmeasures/StructureDefinition/cqfm-testCaseDescription",
        "valueMarkdown": "Amb Enc. last day of MP, last few minutes of the day  2330 - 2359 during MP, age 20, "
      } ],
      "modifierExtension": [ {
        "url": "http://hl7.org/fhir/us/cqfmeasures/StructureDefinition/cqfm-isTestCase",
        "valueBoolean": true
      } ],
      "status": "complete",
      "type": "individual",
      "measure": "https://madie.cms.gov/Measure/CMS69FHIRPCSBMIScreenAndFollowUp",
      "period": {
        "start": "2026-01-01",
        "end": "2026-12-31"
      },
      "group": [ {
        "id": "Group_1",
        "population": [ {
          "id": "InitialPopulation_1",
          "code": {
            "coding": [ {
              "system": "http://terminology.hl7.org/CodeSystem/measure-population",
              "code": "initial-population",
              "display": "Initial Population"
            } ]
          },
          "count": 1
        }, {
          "id": "Denominator_1",
          "code": {
            "coding": [ {
              "system": "http://terminology.hl7.org/CodeSystem/measure-population",
              "code": "denominator",
              "display": "Denominator"
            } ]
          },
          "count": 1
        }, {
          "id": "DenominatorExclusion_1",
          "code": {
            "coding": [ {
              "system": "http://terminology.hl7.org/CodeSystem/measure-population",
              "code": "denominator-exclusion",
              "display": "Denominator Exclusion"
            } ]
          },
          "count": 0
        }, {
          "id": "Numerator_1",
          "code": {
            "coding": [ {
              "system": "http://terminology.hl7.org/CodeSystem/measure-population",
              "code": "numerator",
              "display": "Numerator"
            } ]
          },
          "count": 0
        }, {
          "id": "DenominatorException_1",
          "code": {
            "coding": [ {
              "system": "http://terminology.hl7.org/CodeSystem/measure-population",
              "code": "denominator-exception",
              "display": "Denominator Exception"
            } ]
          },
          "count": 0
        } ],
        "measureScore": {
          "value": 1.0
        }
      } ],
      "evaluatedResource": [ {
        "reference": "Patient/8e130410-9710-45f3-ac56-e69dee0755d9"
      }, {
        "reference": "Encounter/50c02911-3477-43b4-9792-8040f1b9f685"
      }, {
        "reference": "Coverage/80ac8808-5af5-4947-92dc-fde7fe6b9198"
      }, {
        "reference": "Organization/84517367-662d-43bd-bbe3-07382accc714"
      } ]
    },
    "request": {
      "method": "PUT",
      "url": "MeasureReport/47c5ed1d-f848-414c-912e-725ccbedd661"
    }
  } ]
}