{
  "resourceType": "Bundle",
  "id": "NUM2Fail-ProcedureIncorrectSnomedCode",
  "type": "transaction",
  "entry": [ {
    "fullUrl": "https://madie.cms.gov/Patient/cc4625b4-93a4-47e3-8693-7cd9cc01174b",
    "resource": {
      "resourceType": "Patient",
      "id": "cc4625b4-93a4-47e3-8693-7cd9cc01174b",
      "meta": {
        "profile": [ "http://hl7.org/fhir/us/qicore/StructureDefinition/qicore-patient" ]
      },
      "extension": [ {
        "url": "http://hl7.org/fhir/us/core/StructureDefinition/us-core-race",
        "extension": [ {
          "url": "ombCategory",
          "valueCoding": {
            "system": "urn:oid:2.16.840.1.113883.6.238",
            "code": "2028-9",
            "display": "Asian"
          }
        }, {
          "url": "text",
          "valueString": "Asian"
        } ]
      }, {
        "url": "http://hl7.org/fhir/us/core/StructureDefinition/us-core-ethnicity",
        "extension": [ {
          "url": "ombCategory",
          "valueCoding": {
            "system": "urn:oid:2.16.840.1.113883.6.238",
            "code": "2135-2",
            "display": "Hispanic or Latino"
          }
        }, {
          "url": "text",
          "valueString": "Hispanic or Latino"
        } ]
      } ],
      "identifier": [ {
        "system": "http://hospital.smarthealthit.org",
        "value": "999999995"
      } ],
      "name": [ {
        "family": "Bertha",
        "given": [ "Betty" ]
      } ],
      "gender": "female",
      "birthDate": "2013-12-31"
    },
    "request": {
      "method": "PUT",
      "url": "Patient/cc4625b4-93a4-47e3-8693-7cd9cc01174b"
    }
  }, {
    "fullUrl": "https://madie.cms.gov/Encounter/ca35a032-8865-4fd7-9f74-19e06854b731",
    "resource": {
      "resourceType": "Encounter",
      "id": "ca35a032-8865-4fd7-9f74-19e06854b731",
      "meta": {
        "profile": [ "http://hl7.org/fhir/us/qicore/StructureDefinition/qicore-encounter" ]
      },
      "status": "finished",
      "class": {
        "system": "http://terminology.hl7.org/CodeSystem/v3-ActCode",
        "code": "AMB",
        "display": "ambulatory"
      },
      "type": [ {
        "coding": [ {
          "system": "http://snomed.info/sct",
          "code": "185463005",
          "display": "Visit out of hours (procedure)"
        } ]
      } ],
      "subject": {
        "reference": "Patient/cc4625b4-93a4-47e3-8693-7cd9cc01174b"
      },
      "period": {
        "start": "2026-01-01T01:00:00.000Z",
        "end": "2026-01-01T01:15:00.000Z"
      }
    },
    "request": {
      "method": "PUT",
      "url": "Encounter/ca35a032-8865-4fd7-9f74-19e06854b731"
    }
  }, {
    "fullUrl": "https://madie.cms.gov/Encounter/707d02b5-fa56-4ae2-a79d-a442bc51974d",
    "resource": {
      "resourceType": "Encounter",
      "id": "707d02b5-fa56-4ae2-a79d-a442bc51974d",
      "meta": {
        "profile": [ "http://hl7.org/fhir/us/qicore/StructureDefinition/qicore-encounter" ]
      },
      "status": "finished",
      "class": {
        "system": "http://terminology.hl7.org/CodeSystem/v3-ActCode",
        "code": "AMB",
        "display": "ambulatory"
      },
      "type": [ {
        "coding": [ {
          "system": "http://snomed.info/sct",
          "code": "41375007",
          "display": "Medical evaluation of hearing problem (procedure)"
        } ]
      } ],
      "subject": {
        "reference": "Patient/cc4625b4-93a4-47e3-8693-7cd9cc01174b"
      },
      "period": {
        "start": "2026-01-01T01:00:00.000Z",
        "end": "2026-01-01T01:15:00.000Z"
      }
    },
    "request": {
      "method": "PUT",
      "url": "Encounter/707d02b5-fa56-4ae2-a79d-a442bc51974d"
    }
  }, {
    "fullUrl": "https://madie.cms.gov/Observation/1fbd9032-f0b9-493e-8a2a-faaed4f4f01c",
    "resource": {
      "resourceType": "Observation",
      "id": "1fbd9032-f0b9-493e-8a2a-faaed4f4f01c",
      "meta": {
        "profile": [ "http://hl7.org/fhir/us/core/StructureDefinition/us-core-smokingstatus" ]
      },
      "status": "final",
      "category": [ {
        "coding": [ {
          "system": "http://terminology.hl7.org/CodeSystem/observation-category",
          "code": "survey",
          "display": "survey"
        } ],
        "text": "survey"
      } ],
      "code": {
        "coding": [ {
          "system": "http://loinc.org",
          "code": "39240-7",
          "display": "Tobacco use status CPHS"
        } ]
      },
      "subject": {
        "reference": "Patient/cc4625b4-93a4-47e3-8693-7cd9cc01174b"
      },
      "effectiveDateTime": "2026-01-01T01:00:00.000Z",
      "valueCodeableConcept": {
        "coding": [ {
          "system": "http://snomed.info/sct",
          "code": "110483000",
          "display": "Tobacco user (finding)"
        } ]
      }
    },
    "request": {
      "method": "PUT",
      "url": "Observation/1fbd9032-f0b9-493e-8a2a-faaed4f4f01c"
    }
  }, {
    "fullUrl": "https://madie.cms.gov/Procedure/f5443709-676e-4321-868f-56c1c6b86a82",
    "resource": {
      "resourceType": "Procedure",
      "id": "f5443709-676e-4321-868f-56c1c6b86a82",
      "meta": {
        "profile": [ "http://hl7.org/fhir/us/qicore/StructureDefinition/qicore-procedure" ]
      },
      "extension": [ {
        "url": "http://hl7.org/fhir/us/qicore/StructureDefinition/qicore-recorded",
        "valueDateTime": "2026-01-01T01:00:00.000Z"
      } ],
      "status": "completed",
      "code": {
        "coding": [ {
          "system": "http://snomed.info/sct",
          "code": "61102800",
          "display": "Counseling about tobacco use (procedure)"
        } ]
      },
      "subject": {
        "reference": "Patient/cc4625b4-93a4-47e3-8693-7cd9cc01174b"
      },
      "performedPeriod": {
        "start": "2026-01-01T01:00:00.000Z",
        "end": "2026-01-01T01:15:00.000Z"
      }
    },
    "request": {
      "method": "PUT",
      "url": "Procedure/f5443709-676e-4321-868f-56c1c6b86a82"
    }
  }, {
    "fullUrl": "https://madie.cms.gov/MeasureReport/2f18f6a4-7399-428a-8dd9-d5c20360758a",
    "resource": {
      "resourceType": "MeasureReport",
      "id": "2f18f6a4-7399-428a-8dd9-d5c20360758a",
      "meta": {
        "profile": [ "http://hl7.org/fhir/us/cqfmeasures/StructureDefinition/test-case-cqfm" ]
      },
      "contained": [ {
        "resourceType": "Parameters",
        "id": "16de8712-478d-468b-be69-c0e821757717-parameters",
        "parameter": [ {
          "name": "subject",
          "valueString": "cc4625b4-93a4-47e3-8693-7cd9cc01174b"
        } ]
      } ],
      "extension": [ {
        "url": "http://hl7.org/fhir/StructureDefinition/cqf-inputParameters",
        "valueReference": {
          "reference": "#16de8712-478d-468b-be69-c0e821757717-parameters"
        }
      }, {
        "url": "http://hl7.org/fhir/us/cqfmeasures/StructureDefinition/cqfm-testCaseDescription",
        "valueMarkdown": "Numerator for population 2 has incorrect SNOMED code "
      } ],
      "modifierExtension": [ {
        "url": "http://hl7.org/fhir/us/cqfmeasures/StructureDefinition/cqfm-isTestCase",
        "valueBoolean": true
      } ],
      "status": "complete",
      "type": "individual",
      "measure": "https://madie.cms.gov/Measure/CMS138FHIRPreventiveTobaccoCessation",
      "period": {
        "start": "2026-01-01",
        "end": "2026-12-31"
      },
      "group": [ {
        "id": "Group_1",
        "population": [ {
          "id": "InitialPopulation_1",
          "code": {
            "coding": [ {
              "system": "http://terminology.hl7.org/CodeSystem/measure-population",
              "code": "initial-population",
              "display": "Initial Population"
            } ]
          },
          "count": 1
        }, {
          "id": "Denominator_1",
          "code": {
            "coding": [ {
              "system": "http://terminology.hl7.org/CodeSystem/measure-population",
              "code": "denominator",
              "display": "Denominator"
            } ]
          },
          "count": 1
        }, {
          "id": "DenominatorExclusion_1",
          "code": {
            "coding": [ {
              "system": "http://terminology.hl7.org/CodeSystem/measure-population",
              "code": "denominator-exclusion",
              "display": "Denominator Exclusion"
            } ]
          },
          "count": 0
        }, {
          "id": "Numerator_1",
          "code": {
            "coding": [ {
              "system": "http://terminology.hl7.org/CodeSystem/measure-population",
              "code": "numerator",
              "display": "Numerator"
            } ]
          },
          "count": 1
        } ],
        "measureScore": {
          "value": 1.0
        }
      }, {
        "id": "Group_2",
        "population": [ {
          "id": "InitialPopulation_2",
          "code": {
            "coding": [ {
              "system": "http://terminology.hl7.org/CodeSystem/measure-population",
              "code": "initial-population",
              "display": "Initial Population"
            } ]
          },
          "count": 1
        }, {
          "id": "Denominator_2",
          "code": {
            "coding": [ {
              "system": "http://terminology.hl7.org/CodeSystem/measure-population",
              "code": "denominator",
              "display": "Denominator"
            } ]
          },
          "count": 1
        }, {
          "id": "DenominatorExclusion_2",
          "code": {
            "coding": [ {
              "system": "http://terminology.hl7.org/CodeSystem/measure-population",
              "code": "denominator-exclusion",
              "display": "Denominator Exclusion"
            } ]
          },
          "count": 0
        }, {
          "id": "Numerator_2",
          "code": {
            "coding": [ {
              "system": "http://terminology.hl7.org/CodeSystem/measure-population",
              "code": "numerator",
              "display": "Numerator"
            } ]
          },
          "count": 0
        } ],
        "measureScore": {
          "value": 1.0
        }
      }, {
        "id": "Group_3",
        "population": [ {
          "id": "InitialPopulation_3",
          "code": {
            "coding": [ {
              "system": "http://terminology.hl7.org/CodeSystem/measure-population",
              "code": "initial-population",
              "display": "Initial Population"
            } ]
          },
          "count": 1
        }, {
          "id": "Denominator_3",
          "code": {
            "coding": [ {
              "system": "http://terminology.hl7.org/CodeSystem/measure-population",
              "code": "denominator",
              "display": "Denominator"
            } ]
          },
          "count": 1
        }, {
          "id": "DenominatorExclusion_3",
          "code": {
            "coding": [ {
              "system": "http://terminology.hl7.org/CodeSystem/measure-population",
              "code": "denominator-exclusion",
              "display": "Denominator Exclusion"
            } ]
          },
          "count": 0
        }, {
          "id": "Numerator_3",
          "code": {
            "coding": [ {
              "system": "http://terminology.hl7.org/CodeSystem/measure-population",
              "code": "numerator",
              "display": "Numerator"
            } ]
          },
          "count": 0
        } ],
        "measureScore": {
          "value": 1.0
        }
      } ],
      "evaluatedResource": [ {
        "reference": "Patient/cc4625b4-93a4-47e3-8693-7cd9cc01174b"
      }, {
        "reference": "Encounter/ca35a032-8865-4fd7-9f74-19e06854b731"
      }, {
        "reference": "Encounter/707d02b5-fa56-4ae2-a79d-a442bc51974d"
      }, {
        "reference": "Observation/1fbd9032-f0b9-493e-8a2a-faaed4f4f01c"
      }, {
        "reference": "Procedure/f5443709-676e-4321-868f-56c1c6b86a82"
      } ]
    },
    "request": {
      "method": "PUT",
      "url": "MeasureReport/2f18f6a4-7399-428a-8dd9-d5c20360758a"
    }
  } ]
}