{
  "resourceType": "Bundle",
  "id": "62fbef57bf5132f90ee35d41",
  "type": "transaction",
  "entry": [ {
    "fullUrl": "https://madie.cms.gov/Patient/1c607e84-c7c2-4dae-bf63-a75d7a9cfd38",
    "resource": {
      "resourceType": "Patient",
      "id": "1c607e84-c7c2-4dae-bf63-a75d7a9cfd38",
      "meta": {
        "profile": [ "http://hl7.org/fhir/us/qicore/StructureDefinition/qicore-patient" ]
      },
      "extension": [ {
        "url": "http://hl7.org/fhir/us/core/StructureDefinition/us-core-race",
        "extension": [ {
          "url": "ombCategory",
          "valueCoding": {
            "system": "urn:oid:2.16.840.1.113883.6.238",
            "code": "2106-3",
            "display": "White",
            "userSelected": true
          }
        }, {
          "url": "text",
          "valueString": "White"
        } ]
      }, {
        "url": "http://hl7.org/fhir/us/core/StructureDefinition/us-core-ethnicity",
        "extension": [ {
          "url": "ombCategory",
          "valueCoding": {
            "system": "urn:oid:2.16.840.1.113883.6.238",
            "code": "2186-5",
            "display": "Not Hispanic or Latino",
            "userSelected": true
          }
        }, {
          "url": "text",
          "valueString": "Not Hispanic or Latino"
        } ]
      } ],
      "identifier": [ {
        "type": {
          "coding": [ {
            "system": "http://terminology.hl7.org/CodeSystem/v2-0203",
            "code": "MR"
          } ]
        },
        "system": "https://bonnie-fhir.healthit.gov/",
        "value": "62fbef57bf5132f90ee35d41"
      } ],
      "name": [ {
        "family": "NUMERFail",
        "given": [ "ObeseDxEndsBeforeIntervention" ]
      } ],
      "gender": "unknown",
      "birthDate": "1957-11-07"
    },
    "request": {
      "method": "PUT",
      "url": "Patient/1c607e84-c7c2-4dae-bf63-a75d7a9cfd38"
    }
  }, {
    "fullUrl": "https://madie.cms.gov/Encounter/4b17e6a3-0038-498f-be93-1380977b08d3",
    "resource": {
      "resourceType": "Encounter",
      "id": "4b17e6a3-0038-498f-be93-1380977b08d3",
      "meta": {
        "profile": [ "http://hl7.org/fhir/us/qicore/StructureDefinition/qicore-encounter" ]
      },
      "status": "finished",
      "class": {
        "system": "http://terminology.hl7.org/CodeSystem/v3-ActCode",
        "code": "AMB",
        "display": "ambulatory"
      },
      "type": [ {
        "coding": [ {
          "system": "http://snomed.info/sct",
          "version": "2022-03",
          "code": "10197000",
          "display": "Psychiatric interview and evaluation (procedure)",
          "userSelected": true
        } ]
      } ],
      "subject": {
        "reference": "Patient/1c607e84-c7c2-4dae-bf63-a75d7a9cfd38"
      },
      "period": {
        "start": "2026-12-31T23:30:00.000+00:00",
        "end": "2026-12-31T23:59:00.000+00:00"
      }
    },
    "request": {
      "method": "PUT",
      "url": "Encounter/4b17e6a3-0038-498f-be93-1380977b08d3"
    }
  }, {
    "fullUrl": "https://madie.cms.gov/Observation/458eb483-6629-486e-ab31-0ddfc886d292",
    "resource": {
      "resourceType": "Observation",
      "id": "458eb483-6629-486e-ab31-0ddfc886d292",
      "meta": {
        "profile": [ "http://hl7.org/fhir/us/core/StructureDefinition/us-core-bmi" ]
      },
      "status": "final",
      "category": [ {
        "coding": [ {
          "system": "http://terminology.hl7.org/CodeSystem/observation-category",
          "code": "vital-signs",
          "display": "Vital Signs"
        } ]
      } ],
      "code": {
        "coding": [ {
          "system": "http://loinc.org",
          "code": "39156-5",
          "display": "Body mass index (BMI) [Ratio]",
          "userSelected": true
        } ]
      },
      "subject": {
        "reference": "Patient/1c607e84-c7c2-4dae-bf63-a75d7a9cfd38"
      },
      "effectiveDateTime": "2026-12-30T08:05:00.000+00:00",
      "valueQuantity": {
        "value": 30,
        "unit": "kg/m2",
        "system": "http://unitsofmeasure.org",
        "code": "kg/m2"
      }
    },
    "request": {
      "method": "PUT",
      "url": "Observation/458eb483-6629-486e-ab31-0ddfc886d292"
    }
  }, {
    "fullUrl": "https://madie.cms.gov/ServiceRequest/c2308399-42f1-4033-8b99-48600b909c2a",
    "resource": {
      "resourceType": "ServiceRequest",
      "id": "c2308399-42f1-4033-8b99-48600b909c2a",
      "meta": {
        "profile": [ "http://hl7.org/fhir/us/qicore/StructureDefinition/qicore-servicerequest" ]
      },
      "extension": [ {
        "url": "http://hl7.org/fhir/us/qicore/StructureDefinition/qicore-recorded",
        "valueDateTime": "2026-12-30T23:58:00.000+00:00"
      } ],
      "status": "completed",
      "intent": "order",
      "code": {
        "coding": [ {
          "system": "http://snomed.info/sct",
          "version": "2022-03",
          "code": "182922004",
          "display": "Dietary regime (regime/therapy)",
          "userSelected": true
        } ]
      },
      "subject": {
        "reference": "Patient/1c607e84-c7c2-4dae-bf63-a75d7a9cfd38"
      },
      "authoredOn": "2024-12-31T08:00:00.000+00:00"
    },
    "request": {
      "method": "PUT",
      "url": "ServiceRequest/c2308399-42f1-4033-8b99-48600b909c2a"
    }
  }, {
    "fullUrl": "https://madie.cms.gov/Condition/4d1f2bd5-3308-412d-b45c-cf702113cacf",
    "resource": {
      "resourceType": "Condition",
      "id": "4d1f2bd5-3308-412d-b45c-cf702113cacf",
      "meta": {
        "profile": [ "http://hl7.org/fhir/us/qicore/StructureDefinition/qicore-condition-problems-health-concerns" ]
      },
      "clinicalStatus": {
        "coding": [ {
          "system": "http://terminology.hl7.org/CodeSystem/condition-clinical",
          "code": "resolved",
          "display": "Resolved",
          "userSelected": true
        } ]
      },
      "category": [ {
        "coding": [ {
          "system": "http://terminology.hl7.org/CodeSystem/condition-category",
          "code": "problem-list-item",
          "display": "Problem List Item"
        }, {
          "system": "http://snomed.info/sct",
          "code": "439401001",
          "display": "Diagnosis"
        } ]
      } ],
      "code": {
        "coding": [ {
          "system": "http://snomed.info/sct",
          "version": "2022-03",
          "code": "162863004",
          "display": "Body mass index 25-29 - overweight (finding)",
          "userSelected": true
        } ]
      },
      "subject": {
        "reference": "Patient/1c607e84-c7c2-4dae-bf63-a75d7a9cfd38"
      },
      "onsetDateTime": "2023-12-29T23:59:00.000+00:00",
      "abatementDateTime": "2026-12-29T23:59:00.000+00:00"
    },
    "request": {
      "method": "PUT",
      "url": "Condition/4d1f2bd5-3308-412d-b45c-cf702113cacf"
    }
  }, {
    "fullUrl": "https://madie.cms.gov/Coverage/3da02aaa-235c-4865-951e-2907190d140e",
    "resource": {
      "resourceType": "Coverage",
      "id": "3da02aaa-235c-4865-951e-2907190d140e",
      "meta": {
        "profile": [ "http://hl7.org/fhir/us/qicore/StructureDefinition/qicore-coverage" ]
      },
      "status": "active",
      "beneficiary": {
        "reference": "Patient/1c607e84-c7c2-4dae-bf63-a75d7a9cfd38"
      },
      "payor": [ {
        "reference": "Organization/24082c97-093a-4201-9f30-3151313fceb4"
      } ]
    },
    "request": {
      "method": "PUT",
      "url": "Coverage/3da02aaa-235c-4865-951e-2907190d140e"
    }
  }, {
    "fullUrl": "https://madie.cms.gov/Organization/24082c97-093a-4201-9f30-3151313fceb4",
    "resource": {
      "resourceType": "Organization",
      "id": "24082c97-093a-4201-9f30-3151313fceb4",
      "meta": {
        "profile": [ "http://hl7.org/fhir/us/qicore/StructureDefinition/qicore-organization" ]
      },
      "identifier": [ {
        "use": "temp",
        "system": "urn:oid:2.16.840.1.113883.4.4",
        "value": "21-3259825"
      } ],
      "active": true,
      "type": [ {
        "coding": [ {
          "system": "http://terminology.hl7.org/CodeSystem/organization-type",
          "code": "pay",
          "display": "Payer"
        } ]
      } ],
      "name": "Blue Cross Blue Shield of Texas",
      "telecom": [ {
        "system": "phone",
        "value": "(+1) 972-766-6900"
      } ],
      "address": [ {
        "use": "billing",
        "type": "postal",
        "line": [ "P.O. Box 660044" ],
        "city": "Dallas",
        "state": "TX",
        "postalCode": "75266-0044",
        "country": "USA"
      } ]
    },
    "request": {
      "method": "PUT",
      "url": "Organization/24082c97-093a-4201-9f30-3151313fceb4"
    }
  }, {
    "fullUrl": "https://madie.cms.gov/MeasureReport/3cc436dc-b5ab-4bb8-b72a-584248e4a343",
    "resource": {
      "resourceType": "MeasureReport",
      "id": "3cc436dc-b5ab-4bb8-b72a-584248e4a343",
      "meta": {
        "profile": [ "http://hl7.org/fhir/us/cqfmeasures/StructureDefinition/test-case-cqfm" ]
      },
      "contained": [ {
        "resourceType": "Parameters",
        "id": "e17e5208-05a0-4748-b17c-48a2941b0eb7-parameters",
        "parameter": [ {
          "name": "subject",
          "valueString": "1c607e84-c7c2-4dae-bf63-a75d7a9cfd38"
        } ]
      } ],
      "extension": [ {
        "url": "http://hl7.org/fhir/StructureDefinition/cqf-inputParameters",
        "valueReference": {
          "reference": "#e17e5208-05a0-4748-b17c-48a2941b0eb7-parameters"
        }
      }, {
        "url": "http://hl7.org/fhir/us/cqfmeasures/StructureDefinition/cqfm-testCaseDescription",
        "valueMarkdown": "Enc last day of MP @23:30-23:59, BMI 30 kg/m2 during enc, Obese dx 7/25/23, inactive 12/30, intervention after dx inactive, expected to fail the numer\n"
      } ],
      "modifierExtension": [ {
        "url": "http://hl7.org/fhir/us/cqfmeasures/StructureDefinition/cqfm-isTestCase",
        "valueBoolean": true
      } ],
      "status": "complete",
      "type": "individual",
      "measure": "https://madie.cms.gov/Measure/CMS69FHIRPCSBMIScreenAndFollowUp",
      "period": {
        "start": "2026-01-01",
        "end": "2026-12-31"
      },
      "group": [ {
        "id": "Group_1",
        "population": [ {
          "id": "InitialPopulation_1",
          "code": {
            "coding": [ {
              "system": "http://terminology.hl7.org/CodeSystem/measure-population",
              "code": "initial-population",
              "display": "Initial Population"
            } ]
          },
          "count": 1
        }, {
          "id": "Denominator_1",
          "code": {
            "coding": [ {
              "system": "http://terminology.hl7.org/CodeSystem/measure-population",
              "code": "denominator",
              "display": "Denominator"
            } ]
          },
          "count": 1
        }, {
          "id": "DenominatorExclusion_1",
          "code": {
            "coding": [ {
              "system": "http://terminology.hl7.org/CodeSystem/measure-population",
              "code": "denominator-exclusion",
              "display": "Denominator Exclusion"
            } ]
          },
          "count": 0
        }, {
          "id": "Numerator_1",
          "code": {
            "coding": [ {
              "system": "http://terminology.hl7.org/CodeSystem/measure-population",
              "code": "numerator",
              "display": "Numerator"
            } ]
          },
          "count": 0
        }, {
          "id": "DenominatorException_1",
          "code": {
            "coding": [ {
              "system": "http://terminology.hl7.org/CodeSystem/measure-population",
              "code": "denominator-exception",
              "display": "Denominator Exception"
            } ]
          },
          "count": 0
        } ],
        "measureScore": {
          "value": 1.0
        }
      } ],
      "evaluatedResource": [ {
        "reference": "Patient/1c607e84-c7c2-4dae-bf63-a75d7a9cfd38"
      }, {
        "reference": "Encounter/4b17e6a3-0038-498f-be93-1380977b08d3"
      }, {
        "reference": "Observation/458eb483-6629-486e-ab31-0ddfc886d292"
      }, {
        "reference": "ServiceRequest/c2308399-42f1-4033-8b99-48600b909c2a"
      }, {
        "reference": "Condition/4d1f2bd5-3308-412d-b45c-cf702113cacf"
      }, {
        "reference": "Coverage/3da02aaa-235c-4865-951e-2907190d140e"
      }, {
        "reference": "Organization/24082c97-093a-4201-9f30-3151313fceb4"
      } ]
    },
    "request": {
      "method": "PUT",
      "url": "MeasureReport/3cc436dc-b5ab-4bb8-b72a-584248e4a343"
    }
  } ]
}