{
  "resourceType": "Bundle",
  "id": "Age12SeenForTVScreenedForTAndTUWithHDuringMP",
  "type": "transaction",
  "entry": [ {
    "fullUrl": "https://madie.cms.gov/Patient/72c8b10f-fffd-411f-bf81-c7d0608ad314",
    "resource": {
      "resourceType": "Patient",
      "id": "72c8b10f-fffd-411f-bf81-c7d0608ad314",
      "meta": {
        "profile": [ "http://hl7.org/fhir/us/qicore/StructureDefinition/qicore-patient" ]
      },
      "extension": [ {
        "url": "http://hl7.org/fhir/us/core/StructureDefinition/us-core-race",
        "extension": [ {
          "url": "ombCategory",
          "valueCoding": {
            "system": "urn:oid:2.16.840.1.113883.6.238",
            "code": "2028-9",
            "display": "Asian"
          }
        }, {
          "url": "text",
          "valueString": "Asian"
        } ]
      }, {
        "url": "http://hl7.org/fhir/us/core/StructureDefinition/us-core-ethnicity",
        "extension": [ {
          "url": "ombCategory",
          "valueCoding": {
            "system": "urn:oid:2.16.840.1.113883.6.238",
            "code": "2135-2",
            "display": "Hispanic or Latino"
          }
        }, {
          "url": "text",
          "valueString": "Hispanic or Latino"
        } ]
      } ],
      "identifier": [ {
        "system": "http://hospital.smarthealthit.org",
        "value": "999999995"
      } ],
      "name": [ {
        "family": "Bertha",
        "given": [ "Betty" ]
      } ],
      "gender": "female",
      "birthDate": "2013-12-31"
    },
    "request": {
      "method": "PUT",
      "url": "Patient/72c8b10f-fffd-411f-bf81-c7d0608ad314"
    }
  }, {
    "fullUrl": "https://madie.cms.gov/Encounter/39cee5fd-5b24-4cb8-8573-d9c7b3979c40",
    "resource": {
      "resourceType": "Encounter",
      "id": "39cee5fd-5b24-4cb8-8573-d9c7b3979c40",
      "meta": {
        "profile": [ "http://hl7.org/fhir/us/qicore/StructureDefinition/qicore-encounter" ]
      },
      "status": "finished",
      "class": {
        "system": "http://terminology.hl7.org/CodeSystem/v3-ActCode",
        "code": "AMB",
        "display": "ambulatory"
      },
      "type": [ {
        "coding": [ {
          "system": "http://snomed.info/sct",
          "code": "185463005",
          "display": "Visit out of hours (procedure)"
        } ]
      } ],
      "subject": {
        "reference": "Patient/72c8b10f-fffd-411f-bf81-c7d0608ad314"
      },
      "period": {
        "start": "2026-01-01T01:00:00.000Z",
        "end": "2026-01-01T01:15:00.000Z"
      }
    },
    "request": {
      "method": "PUT",
      "url": "Encounter/39cee5fd-5b24-4cb8-8573-d9c7b3979c40"
    }
  }, {
    "fullUrl": "https://madie.cms.gov/Encounter/a5c95992-b14c-4167-999b-da6dbf419bce",
    "resource": {
      "resourceType": "Encounter",
      "id": "a5c95992-b14c-4167-999b-da6dbf419bce",
      "meta": {
        "profile": [ "http://hl7.org/fhir/us/qicore/StructureDefinition/qicore-encounter" ]
      },
      "status": "finished",
      "class": {
        "system": "http://terminology.hl7.org/CodeSystem/v3-ActCode",
        "code": "AMB",
        "display": "ambulatory"
      },
      "type": [ {
        "coding": [ {
          "system": "http://snomed.info/sct",
          "code": "41375007",
          "display": "Medical evaluation of hearing problem (procedure)"
        } ]
      } ],
      "subject": {
        "reference": "Patient/72c8b10f-fffd-411f-bf81-c7d0608ad314"
      },
      "period": {
        "start": "2026-01-01T01:00:00.000Z",
        "end": "2026-01-01T01:15:00.000Z"
      }
    },
    "request": {
      "method": "PUT",
      "url": "Encounter/a5c95992-b14c-4167-999b-da6dbf419bce"
    }
  }, {
    "fullUrl": "https://madie.cms.gov/Procedure/dc57d11d-4785-48a5-b77d-be9931eb4bbb",
    "resource": {
      "resourceType": "Procedure",
      "id": "dc57d11d-4785-48a5-b77d-be9931eb4bbb",
      "meta": {
        "profile": [ "http://hl7.org/fhir/us/qicore/StructureDefinition/qicore-procedure" ]
      },
      "extension": [ {
        "url": "http://hl7.org/fhir/us/qicore/StructureDefinition/qicore-recorded",
        "valueDateTime": "2026-01-01T23:00:00.000Z"
      } ],
      "status": "completed",
      "code": {
        "coding": [ {
          "system": "http://snomed.info/sct",
          "code": "385763009",
          "display": "Hospice care (regime/therapy)"
        } ]
      },
      "subject": {
        "reference": "Patient/72c8b10f-fffd-411f-bf81-c7d0608ad314"
      },
      "performedPeriod": {
        "start": "2026-01-01T23:00:00.000Z",
        "end": "2026-01-01T23:00:00.000Z"
      }
    },
    "request": {
      "method": "PUT",
      "url": "Procedure/dc57d11d-4785-48a5-b77d-be9931eb4bbb"
    }
  }, {
    "fullUrl": "https://madie.cms.gov/Observation/5a0fe2e0-2960-41af-9798-f61b1d2433de",
    "resource": {
      "resourceType": "Observation",
      "id": "5a0fe2e0-2960-41af-9798-f61b1d2433de",
      "meta": {
        "profile": [ "http://hl7.org/fhir/us/core/StructureDefinition/us-core-smokingstatus" ]
      },
      "status": "final",
      "category": [ {
        "coding": [ {
          "system": "http://terminology.hl7.org/CodeSystem/observation-category",
          "code": "survey",
          "display": "survey"
        } ],
        "text": "survey"
      } ],
      "code": {
        "coding": [ {
          "system": "http://loinc.org",
          "code": "39240-7",
          "display": "Tobacco use status CPHS"
        } ]
      },
      "subject": {
        "reference": "Patient/72c8b10f-fffd-411f-bf81-c7d0608ad314"
      },
      "effectiveDateTime": "2026-01-01T01:00:00.000Z",
      "valueCodeableConcept": {
        "coding": [ {
          "system": "http://snomed.info/sct",
          "code": "110483000",
          "display": "Tobacco user (finding)"
        } ]
      }
    },
    "request": {
      "method": "PUT",
      "url": "Observation/5a0fe2e0-2960-41af-9798-f61b1d2433de"
    }
  }, {
    "fullUrl": "https://madie.cms.gov/MeasureReport/e41193bf-3e49-44aa-bf83-44a8d645686f",
    "resource": {
      "resourceType": "MeasureReport",
      "id": "e41193bf-3e49-44aa-bf83-44a8d645686f",
      "meta": {
        "profile": [ "http://hl7.org/fhir/us/cqfmeasures/StructureDefinition/test-case-cqfm" ]
      },
      "contained": [ {
        "resourceType": "Parameters",
        "id": "235a1d9c-847b-4201-9cce-0ee7c7f17733-parameters",
        "parameter": [ {
          "name": "subject",
          "valueString": "72c8b10f-fffd-411f-bf81-c7d0608ad314"
        } ]
      } ],
      "extension": [ {
        "url": "http://hl7.org/fhir/StructureDefinition/cqf-inputParameters",
        "valueReference": {
          "reference": "#235a1d9c-847b-4201-9cce-0ee7c7f17733-parameters"
        }
      }, {
        "url": "http://hl7.org/fhir/us/cqfmeasures/StructureDefinition/cqfm-testCaseDescription",
        "valueMarkdown": "Patient 12 years old seen for two visits who were screened for tobacco use and identified as a tobacco user with hospice care during MP"
      } ],
      "modifierExtension": [ {
        "url": "http://hl7.org/fhir/us/cqfmeasures/StructureDefinition/cqfm-isTestCase",
        "valueBoolean": true
      } ],
      "status": "complete",
      "type": "individual",
      "measure": "https://madie.cms.gov/Measure/CMS138FHIRPreventiveTobaccoCessation",
      "period": {
        "start": "2026-01-01",
        "end": "2026-12-31"
      },
      "group": [ {
        "id": "Group_1",
        "population": [ {
          "id": "InitialPopulation_1",
          "code": {
            "coding": [ {
              "system": "http://terminology.hl7.org/CodeSystem/measure-population",
              "code": "initial-population",
              "display": "Initial Population"
            } ]
          },
          "count": 1
        }, {
          "id": "Denominator_1",
          "code": {
            "coding": [ {
              "system": "http://terminology.hl7.org/CodeSystem/measure-population",
              "code": "denominator",
              "display": "Denominator"
            } ]
          },
          "count": 1
        }, {
          "id": "DenominatorExclusion_1",
          "code": {
            "coding": [ {
              "system": "http://terminology.hl7.org/CodeSystem/measure-population",
              "code": "denominator-exclusion",
              "display": "Denominator Exclusion"
            } ]
          },
          "count": 1
        }, {
          "id": "Numerator_1",
          "code": {
            "coding": [ {
              "system": "http://terminology.hl7.org/CodeSystem/measure-population",
              "code": "numerator",
              "display": "Numerator"
            } ]
          },
          "count": 0
        } ],
        "measureScore": {
          "value": 1.0
        }
      }, {
        "id": "Group_2",
        "population": [ {
          "id": "InitialPopulation_2",
          "code": {
            "coding": [ {
              "system": "http://terminology.hl7.org/CodeSystem/measure-population",
              "code": "initial-population",
              "display": "Initial Population"
            } ]
          },
          "count": 1
        }, {
          "id": "Denominator_2",
          "code": {
            "coding": [ {
              "system": "http://terminology.hl7.org/CodeSystem/measure-population",
              "code": "denominator",
              "display": "Denominator"
            } ]
          },
          "count": 1
        }, {
          "id": "DenominatorExclusion_2",
          "code": {
            "coding": [ {
              "system": "http://terminology.hl7.org/CodeSystem/measure-population",
              "code": "denominator-exclusion",
              "display": "Denominator Exclusion"
            } ]
          },
          "count": 1
        }, {
          "id": "Numerator_2",
          "code": {
            "coding": [ {
              "system": "http://terminology.hl7.org/CodeSystem/measure-population",
              "code": "numerator",
              "display": "Numerator"
            } ]
          },
          "count": 0
        } ],
        "measureScore": {
          "value": 1.0
        }
      }, {
        "id": "Group_3",
        "population": [ {
          "id": "InitialPopulation_3",
          "code": {
            "coding": [ {
              "system": "http://terminology.hl7.org/CodeSystem/measure-population",
              "code": "initial-population",
              "display": "Initial Population"
            } ]
          },
          "count": 1
        }, {
          "id": "Denominator_3",
          "code": {
            "coding": [ {
              "system": "http://terminology.hl7.org/CodeSystem/measure-population",
              "code": "denominator",
              "display": "Denominator"
            } ]
          },
          "count": 1
        }, {
          "id": "DenominatorExclusion_3",
          "code": {
            "coding": [ {
              "system": "http://terminology.hl7.org/CodeSystem/measure-population",
              "code": "denominator-exclusion",
              "display": "Denominator Exclusion"
            } ]
          },
          "count": 1
        }, {
          "id": "Numerator_3",
          "code": {
            "coding": [ {
              "system": "http://terminology.hl7.org/CodeSystem/measure-population",
              "code": "numerator",
              "display": "Numerator"
            } ]
          },
          "count": 0
        } ],
        "measureScore": {
          "value": 1.0
        }
      } ],
      "evaluatedResource": [ {
        "reference": "Patient/72c8b10f-fffd-411f-bf81-c7d0608ad314"
      }, {
        "reference": "Encounter/39cee5fd-5b24-4cb8-8573-d9c7b3979c40"
      }, {
        "reference": "Encounter/a5c95992-b14c-4167-999b-da6dbf419bce"
      }, {
        "reference": "Procedure/dc57d11d-4785-48a5-b77d-be9931eb4bbb"
      }, {
        "reference": "Observation/5a0fe2e0-2960-41af-9798-f61b1d2433de"
      } ]
    },
    "request": {
      "method": "PUT",
      "url": "MeasureReport/e41193bf-3e49-44aa-bf83-44a8d645686f"
    }
  } ]
}