{
  "resourceType": "Bundle",
  "id": "NUMFail-RetinalExamJan1AfterMPRetinoDxDec31YrB4MP",
  "type": "transaction",
  "entry": [ {
    "fullUrl": "https://madie.cms.gov/Patient/19a6d651-3dd7-45a9-9340-e40e41875a13",
    "resource": {
      "resourceType": "Patient",
      "id": "19a6d651-3dd7-45a9-9340-e40e41875a13",
      "meta": {
        "profile": [ "http://hl7.org/fhir/us/qicore/StructureDefinition/qicore-patient" ]
      },
      "extension": [ {
        "url": "http://hl7.org/fhir/us/core/StructureDefinition/us-core-race",
        "extension": [ {
          "url": "ombCategory",
          "valueCoding": {
            "system": "urn:oid:2.16.840.1.113883.6.238",
            "code": "2028-9",
            "display": "Asian",
            "userSelected": true
          }
        }, {
          "url": "text",
          "valueString": "Asian"
        } ]
      }, {
        "url": "http://hl7.org/fhir/us/core/StructureDefinition/us-core-ethnicity",
        "extension": [ {
          "url": "ombCategory",
          "valueCoding": {
            "system": "urn:oid:2.16.840.1.113883.6.238",
            "code": "2135-2",
            "display": "Hispanic or Latino",
            "userSelected": true
          }
        }, {
          "url": "text",
          "valueString": "Hispanic or Latino"
        } ]
      } ],
      "identifier": [ {
        "type": {
          "coding": [ {
            "system": "http://terminology.hl7.org/CodeSystem/v2-0203",
            "code": "MR"
          } ]
        },
        "system": "http://hospital.smarthealthit.org",
        "value": "999999995"
      } ],
      "name": [ {
        "family": "Bertha",
        "given": [ "Betty" ]
      } ],
      "gender": "female",
      "birthDate": "2007-12-31"
    },
    "request": {
      "method": "PUT",
      "url": "Patient/19a6d651-3dd7-45a9-9340-e40e41875a13"
    }
  }, {
    "fullUrl": "https://madie.cms.gov/Encounter/92408a95-a650-4b6b-9170-a840239b51c4",
    "resource": {
      "resourceType": "Encounter",
      "id": "92408a95-a650-4b6b-9170-a840239b51c4",
      "meta": {
        "profile": [ "http://hl7.org/fhir/us/qicore/StructureDefinition/qicore-encounter" ]
      },
      "status": "finished",
      "class": {
        "system": "http://terminology.hl7.org/CodeSystem/v3-ActCode",
        "code": "AMB",
        "display": "ambulatory"
      },
      "type": [ {
        "coding": [ {
          "system": "http://snomed.info/sct",
          "code": "185463005",
          "display": "Visit out of hours (procedure)"
        } ]
      } ],
      "subject": {
        "reference": "Patient/19a6d651-3dd7-45a9-9340-e40e41875a13"
      },
      "period": {
        "start": "2026-01-01T00:00:00.000+00:00",
        "end": "2026-01-01T00:00:00.000+00:00"
      }
    },
    "request": {
      "method": "PUT",
      "url": "Encounter/92408a95-a650-4b6b-9170-a840239b51c4"
    }
  }, {
    "fullUrl": "https://madie.cms.gov/Condition/a5d15f65-2f87-40d8-9391-6c315a7fd081",
    "resource": {
      "resourceType": "Condition",
      "id": "a5d15f65-2f87-40d8-9391-6c315a7fd081",
      "meta": {
        "profile": [ "http://hl7.org/fhir/us/qicore/StructureDefinition/qicore-condition-encounter-diagnosis" ]
      },
      "clinicalStatus": {
        "coding": [ {
          "system": "http://terminology.hl7.org/CodeSystem/condition-clinical",
          "code": "active"
        } ]
      },
      "category": [ {
        "coding": [ {
          "system": "http://terminology.hl7.org/CodeSystem/condition-category",
          "code": "problem-list-item",
          "display": "Problem List Item"
        } ]
      } ],
      "code": {
        "coding": [ {
          "system": "http://snomed.info/sct",
          "code": "102781000119107",
          "display": "Sensory neuropathy due to type 1 diabetes mellitus (disorder)"
        } ]
      },
      "subject": {
        "reference": "Patient/19a6d651-3dd7-45a9-9340-e40e41875a13"
      },
      "onsetDateTime": "2026-01-01T00:00:00.000+00:00"
    },
    "request": {
      "method": "PUT",
      "url": "Condition/a5d15f65-2f87-40d8-9391-6c315a7fd081"
    }
  }, {
    "fullUrl": "https://madie.cms.gov/Condition/a5d15f65-2f87-40d8-9391-6c315a7fd081.1",
    "resource": {
      "resourceType": "Condition",
      "id": "a5d15f65-2f87-40d8-9391-6c315a7fd081.1",
      "meta": {
        "profile": [ "http://hl7.org/fhir/us/qicore/StructureDefinition/qicore-condition-encounter-diagnosis" ]
      },
      "clinicalStatus": {
        "coding": [ {
          "system": "http://terminology.hl7.org/CodeSystem/condition-clinical",
          "code": "active"
        } ]
      },
      "category": [ {
        "coding": [ {
          "system": "http://terminology.hl7.org/CodeSystem/condition-category",
          "code": "problem-list-item",
          "display": "Problem List Item"
        } ]
      } ],
      "code": {
        "coding": [ {
          "system": "http://snomed.info/sct",
          "code": "193349004",
          "display": "Preproliferative retinopathy due to diabetes mellitus (disorder)"
        } ]
      },
      "subject": {
        "reference": "Patient/19a6d651-3dd7-45a9-9340-e40e41875a13"
      },
      "onsetDateTime": "2024-12-31T23:59:59.000+00:00"
    },
    "request": {
      "method": "PUT",
      "url": "Condition/a5d15f65-2f87-40d8-9391-6c315a7fd081.1"
    }
  }, {
    "fullUrl": "https://madie.cms.gov/Observation/2665b4e9-af87-48a9-b460-1351b6de7572",
    "resource": {
      "resourceType": "Observation",
      "id": "2665b4e9-af87-48a9-b460-1351b6de7572",
      "meta": {
        "profile": [ "http://hl7.org/fhir/us/qicore/StructureDefinition-qicore-observation-clinical-result" ]
      },
      "status": "final",
      "category": [ {
        "coding": [ {
          "system": "http://terminology.hl7.org/CodeSystem/observation-category",
          "code": "exam"
        } ]
      } ],
      "code": {
        "coding": [ {
          "system": "http://snomed.info/sct",
          "code": "252779009",
          "display": "Single bright white flash electroretinography (procedure)"
        } ]
      },
      "subject": {
        "reference": "Patient/19a6d651-3dd7-45a9-9340-e40e41875a13"
      },
      "effectivePeriod": {
        "start": "2027-01-01T00:00:00.000+00:00",
        "end": "2027-01-01T00:00:00.000+00:00"
      }
    },
    "request": {
      "method": "PUT",
      "url": "Observation/2665b4e9-af87-48a9-b460-1351b6de7572"
    }
  }, {
    "fullUrl": "https://madie.cms.gov/MeasureReport/a11eb702-6564-426e-998d-3f928652e801",
    "resource": {
      "resourceType": "MeasureReport",
      "id": "a11eb702-6564-426e-998d-3f928652e801",
      "meta": {
        "profile": [ "http://hl7.org/fhir/us/cqfmeasures/StructureDefinition/test-case-cqfm" ]
      },
      "contained": [ {
        "resourceType": "Parameters",
        "id": "5a16d88a-95b9-478a-9bfd-4325d05862e8-parameters",
        "parameter": [ {
          "name": "subject",
          "valueString": "19a6d651-3dd7-45a9-9340-e40e41875a13"
        } ]
      } ],
      "extension": [ {
        "url": "http://hl7.org/fhir/StructureDefinition/cqf-inputParameters",
        "valueReference": {
          "reference": "#5a16d88a-95b9-478a-9bfd-4325d05862e8-parameters"
        }
      }, {
        "url": "http://hl7.org/fhir/us/cqfmeasures/StructureDefinition/cqfm-testCaseDescription",
        "valueMarkdown": "Patient 18yo w/ an Office Visit Encounter, Diabetes Condition ending 1/1 during the MP, and Retinopathy Condition 12/31 of the year before the MP, with an Eye Exam Observation 1/1 of year after the MP."
      } ],
      "modifierExtension": [ {
        "url": "http://hl7.org/fhir/us/cqfmeasures/StructureDefinition/cqfm-isTestCase",
        "valueBoolean": true
      } ],
      "status": "complete",
      "type": "individual",
      "measure": "https://madie.cms.gov/Measure/CMS131FHIRDiabetesEyeExam",
      "period": {
        "start": "2026-01-01",
        "end": "2026-12-31"
      },
      "group": [ {
        "id": "Group_1",
        "population": [ {
          "id": "InitialPopulation_1",
          "code": {
            "coding": [ {
              "system": "http://terminology.hl7.org/CodeSystem/measure-population",
              "code": "initial-population",
              "display": "Initial Population"
            } ]
          },
          "count": 1
        }, {
          "id": "Denominator_1",
          "code": {
            "coding": [ {
              "system": "http://terminology.hl7.org/CodeSystem/measure-population",
              "code": "denominator",
              "display": "Denominator"
            } ]
          },
          "count": 1
        }, {
          "id": "DenominatorExclusion_1",
          "code": {
            "coding": [ {
              "system": "http://terminology.hl7.org/CodeSystem/measure-population",
              "code": "denominator-exclusion",
              "display": "Denominator Exclusion"
            } ]
          },
          "count": 0
        }, {
          "id": "Numerator_1",
          "code": {
            "coding": [ {
              "system": "http://terminology.hl7.org/CodeSystem/measure-population",
              "code": "numerator",
              "display": "Numerator"
            } ]
          },
          "count": 0
        } ],
        "measureScore": {
          "value": 1.0
        }
      } ],
      "evaluatedResource": [ {
        "reference": "Patient/19a6d651-3dd7-45a9-9340-e40e41875a13"
      }, {
        "reference": "Encounter/92408a95-a650-4b6b-9170-a840239b51c4"
      }, {
        "reference": "Condition/a5d15f65-2f87-40d8-9391-6c315a7fd081"
      }, {
        "reference": "Condition/a5d15f65-2f87-40d8-9391-6c315a7fd081.1"
      }, {
        "reference": "Observation/2665b4e9-af87-48a9-b460-1351b6de7572"
      } ]
    },
    "request": {
      "method": "PUT",
      "url": "MeasureReport/a11eb702-6564-426e-998d-3f928652e801"
    }
  } ]
}