{
  "resourceType": "Bundle",
  "id": "62d95b63f0347d1abcae6c07",
  "type": "transaction",
  "entry": [ {
    "fullUrl": "https://madie.cms.gov/Patient/30561eea-67f0-487c-aff4-a2dea36cb0f9",
    "resource": {
      "resourceType": "Patient",
      "id": "30561eea-67f0-487c-aff4-a2dea36cb0f9",
      "meta": {
        "profile": [ "http://hl7.org/fhir/us/qicore/StructureDefinition/qicore-patient" ]
      },
      "extension": [ {
        "url": "http://hl7.org/fhir/us/core/StructureDefinition/us-core-race",
        "extension": [ {
          "url": "ombCategory",
          "valueCoding": {
            "system": "urn:oid:2.16.840.1.113883.6.238",
            "code": "1002-5",
            "display": "American Indian or Alaska Native",
            "userSelected": true
          }
        }, {
          "url": "text",
          "valueString": "American Indian or Alaska Native"
        } ]
      }, {
        "url": "http://hl7.org/fhir/us/core/StructureDefinition/us-core-ethnicity",
        "extension": [ {
          "url": "ombCategory",
          "valueCoding": {
            "system": "urn:oid:2.16.840.1.113883.6.238",
            "code": "2135-2",
            "display": "Hispanic or Latino",
            "userSelected": true
          }
        }, {
          "url": "text",
          "valueString": "Hispanic or Latino"
        } ]
      } ],
      "identifier": [ {
        "type": {
          "coding": [ {
            "system": "http://terminology.hl7.org/CodeSystem/v2-0203",
            "code": "MR"
          } ]
        },
        "system": "https://bonnie-fhir.healthit.gov/",
        "value": "62d95b63f0347d1abcae6c07"
      } ],
      "name": [ {
        "family": "IPFail",
        "given": [ "EncounterOneDayAfterMP" ]
      } ],
      "gender": "unknown",
      "birthDate": "2004-12-31"
    },
    "request": {
      "method": "PUT",
      "url": "Patient/30561eea-67f0-487c-aff4-a2dea36cb0f9"
    }
  }, {
    "fullUrl": "https://madie.cms.gov/Encounter/419c4e61-70fd-47c4-a160-bfc0e6a07157",
    "resource": {
      "resourceType": "Encounter",
      "id": "419c4e61-70fd-47c4-a160-bfc0e6a07157",
      "meta": {
        "profile": [ "http://hl7.org/fhir/us/qicore/StructureDefinition/qicore-encounter" ]
      },
      "status": "finished",
      "class": {
        "system": "http://terminology.hl7.org/CodeSystem/v3-ActCode",
        "code": "AMB",
        "display": "Ambulatory",
        "userSelected": true
      },
      "type": [ {
        "coding": [ {
          "system": "http://snomed.info/sct",
          "version": "2022-03",
          "code": "103705002",
          "display": "Patient status observation (procedure)",
          "userSelected": true
        } ]
      } ],
      "subject": {
        "reference": "Patient/30561eea-67f0-487c-aff4-a2dea36cb0f9"
      },
      "period": {
        "start": "2026-01-01T08:00:00.000+00:00",
        "end": "2026-01-01T08:30:00.000+00:00"
      }
    },
    "request": {
      "method": "PUT",
      "url": "Encounter/419c4e61-70fd-47c4-a160-bfc0e6a07157"
    }
  }, {
    "fullUrl": "https://madie.cms.gov/Coverage/ffb117a1-99b5-498f-8fc9-59520caec02f",
    "resource": {
      "resourceType": "Coverage",
      "id": "ffb117a1-99b5-498f-8fc9-59520caec02f",
      "meta": {
        "profile": [ "http://hl7.org/fhir/us/qicore/StructureDefinition/qicore-coverage" ]
      },
      "status": "active",
      "beneficiary": {
        "reference": "Patient/30561eea-67f0-487c-aff4-a2dea36cb0f9"
      },
      "payor": [ {
        "reference": "Organization/2c73936d-34d0-418e-8a14-6fd4ea06cc83"
      } ]
    },
    "request": {
      "method": "PUT",
      "url": "Coverage/ffb117a1-99b5-498f-8fc9-59520caec02f"
    }
  }, {
    "fullUrl": "https://madie.cms.gov/Organization/2c73936d-34d0-418e-8a14-6fd4ea06cc83",
    "resource": {
      "resourceType": "Organization",
      "id": "2c73936d-34d0-418e-8a14-6fd4ea06cc83",
      "meta": {
        "profile": [ "http://hl7.org/fhir/us/qicore/StructureDefinition/qicore-organization" ]
      },
      "identifier": [ {
        "use": "temp",
        "system": "urn:oid:2.16.840.1.113883.4.4",
        "value": "21-3259825"
      } ],
      "active": true,
      "type": [ {
        "coding": [ {
          "system": "http://terminology.hl7.org/CodeSystem/organization-type",
          "code": "pay",
          "display": "Payer"
        } ]
      } ],
      "name": "Blue Cross Blue Shield of Texas",
      "telecom": [ {
        "system": "phone",
        "value": "(+1) 972-766-6900"
      } ],
      "address": [ {
        "use": "billing",
        "type": "postal",
        "line": [ "P.O. Box 660044" ],
        "city": "Dallas",
        "state": "TX",
        "postalCode": "75266-0044",
        "country": "USA"
      } ]
    },
    "request": {
      "method": "PUT",
      "url": "Organization/2c73936d-34d0-418e-8a14-6fd4ea06cc83"
    }
  }, {
    "fullUrl": "https://madie.cms.gov/Practitioner/da904fed-c40f-498b-bce7-e98ec35d8ad9",
    "resource": {
      "resourceType": "Practitioner",
      "id": "da904fed-c40f-498b-bce7-e98ec35d8ad9",
      "meta": {
        "profile": [ "http://hl7.org/fhir/us/qicore/StructureDefinition/qicore-practitioner" ]
      },
      "identifier": [ {
        "system": "http://hl7.org/fhir/sid/us-npi",
        "value": "123456"
      } ],
      "name": [ {
        "family": "Evil",
        "prefix": [ "Dr" ]
      } ]
    },
    "request": {
      "method": "PUT",
      "url": "Practitioner/da904fed-c40f-498b-bce7-e98ec35d8ad9"
    }
  }, {
    "fullUrl": "https://madie.cms.gov/MeasureReport/25caee0b-39fb-4d8f-b885-821ff5528dfc",
    "resource": {
      "resourceType": "MeasureReport",
      "id": "25caee0b-39fb-4d8f-b885-821ff5528dfc",
      "meta": {
        "profile": [ "http://hl7.org/fhir/us/cqfmeasures/StructureDefinition/test-case-cqfm" ]
      },
      "contained": [ {
        "resourceType": "Parameters",
        "id": "73e3e933-088e-4627-890f-8adcce2ce534-parameters",
        "parameter": [ {
          "name": "subject",
          "valueString": "30561eea-67f0-487c-aff4-a2dea36cb0f9"
        } ]
      } ],
      "extension": [ {
        "url": "http://hl7.org/fhir/StructureDefinition/cqf-inputParameters",
        "valueReference": {
          "reference": "#73e3e933-088e-4627-890f-8adcce2ce534-parameters"
        }
      }, {
        "url": "http://hl7.org/fhir/us/cqfmeasures/StructureDefinition/cqfm-testCaseDescription",
        "valueMarkdown": "Encounter One Day After MP."
      } ],
      "modifierExtension": [ {
        "url": "http://hl7.org/fhir/us/cqfmeasures/StructureDefinition/cqfm-isTestCase",
        "valueBoolean": true
      } ],
      "status": "complete",
      "type": "individual",
      "measure": "https://madie.cms.gov/Measure/CMS69FHIRPCSBMIScreenAndFollowUp",
      "period": {
        "start": "2026-01-01",
        "end": "2026-12-31"
      },
      "group": [ {
        "id": "Group_1",
        "population": [ {
          "id": "InitialPopulation_1",
          "code": {
            "coding": [ {
              "system": "http://terminology.hl7.org/CodeSystem/measure-population",
              "code": "initial-population",
              "display": "Initial Population"
            } ]
          },
          "count": 0
        }, {
          "id": "Denominator_1",
          "code": {
            "coding": [ {
              "system": "http://terminology.hl7.org/CodeSystem/measure-population",
              "code": "denominator",
              "display": "Denominator"
            } ]
          },
          "count": 0
        }, {
          "id": "DenominatorExclusion_1",
          "code": {
            "coding": [ {
              "system": "http://terminology.hl7.org/CodeSystem/measure-population",
              "code": "denominator-exclusion",
              "display": "Denominator Exclusion"
            } ]
          },
          "count": 0
        }, {
          "id": "Numerator_1",
          "code": {
            "coding": [ {
              "system": "http://terminology.hl7.org/CodeSystem/measure-population",
              "code": "numerator",
              "display": "Numerator"
            } ]
          },
          "count": 0
        }, {
          "id": "DenominatorException_1",
          "code": {
            "coding": [ {
              "system": "http://terminology.hl7.org/CodeSystem/measure-population",
              "code": "denominator-exception",
              "display": "Denominator Exception"
            } ]
          },
          "count": 0
        } ],
        "measureScore": {
          "value": 1.0
        }
      } ],
      "evaluatedResource": [ {
        "reference": "Patient/30561eea-67f0-487c-aff4-a2dea36cb0f9"
      }, {
        "reference": "Encounter/419c4e61-70fd-47c4-a160-bfc0e6a07157"
      }, {
        "reference": "Coverage/ffb117a1-99b5-498f-8fc9-59520caec02f"
      }, {
        "reference": "Organization/2c73936d-34d0-418e-8a14-6fd4ea06cc83"
      }, {
        "reference": "Practitioner/da904fed-c40f-498b-bce7-e98ec35d8ad9"
      } ]
    },
    "request": {
      "method": "PUT",
      "url": "MeasureReport/25caee0b-39fb-4d8f-b885-821ff5528dfc"
    }
  } ]
}