{
  "resourceType": "Bundle",
  "id": "62df045c5db91778f87ca900",
  "type": "transaction",
  "entry": [ {
    "fullUrl": "https://madie.cms.gov/Patient/8e38b797-4dec-437d-8bf0-6f0fc78f8ea7",
    "resource": {
      "resourceType": "Patient",
      "id": "8e38b797-4dec-437d-8bf0-6f0fc78f8ea7",
      "meta": {
        "profile": [ "http://hl7.org/fhir/us/qicore/StructureDefinition/qicore-patient" ]
      },
      "extension": [ {
        "url": "http://hl7.org/fhir/us/core/StructureDefinition/us-core-race",
        "extension": [ {
          "url": "ombCategory",
          "valueCoding": {
            "system": "urn:oid:2.16.840.1.113883.6.238",
            "code": "2106-3",
            "display": "White",
            "userSelected": true
          }
        }, {
          "url": "text",
          "valueString": "White"
        } ]
      }, {
        "url": "http://hl7.org/fhir/us/core/StructureDefinition/us-core-ethnicity",
        "extension": [ {
          "url": "ombCategory",
          "valueCoding": {
            "system": "urn:oid:2.16.840.1.113883.6.238",
            "code": "2186-5",
            "display": "Not Hispanic or Latino",
            "userSelected": true
          }
        }, {
          "url": "text",
          "valueString": "Not Hispanic or Latino"
        } ]
      } ],
      "identifier": [ {
        "type": {
          "coding": [ {
            "system": "http://terminology.hl7.org/CodeSystem/v2-0203",
            "code": "MR"
          } ]
        },
        "system": "https://bonnie-fhir.healthit.gov/",
        "value": "62df045c5db91778f87ca900"
      } ],
      "name": [ {
        "family": "NUMERPass",
        "given": [ "HighBMIAndInterventionOrderedFollowUp" ]
      } ],
      "gender": "male",
      "birthDate": "1957-11-07"
    },
    "request": {
      "method": "PUT",
      "url": "Patient/8e38b797-4dec-437d-8bf0-6f0fc78f8ea7"
    }
  }, {
    "fullUrl": "https://madie.cms.gov/Encounter/518dfbff-ae73-4c44-ad97-159fe5cc7de3",
    "resource": {
      "resourceType": "Encounter",
      "id": "518dfbff-ae73-4c44-ad97-159fe5cc7de3",
      "meta": {
        "profile": [ "http://hl7.org/fhir/us/qicore/StructureDefinition/qicore-encounter" ]
      },
      "status": "finished",
      "class": {
        "system": "http://terminology.hl7.org/CodeSystem/v3-ActCode",
        "code": "AMB",
        "display": "ambulatory"
      },
      "type": [ {
        "coding": [ {
          "system": "http://snomed.info/sct",
          "version": "2022-03",
          "code": "10197000",
          "display": "Psychiatric interview and evaluation (procedure)",
          "userSelected": true
        } ]
      } ],
      "subject": {
        "reference": "Patient/8e38b797-4dec-437d-8bf0-6f0fc78f8ea7"
      },
      "period": {
        "start": "2026-01-01T00:00:00.000+00:00",
        "end": "2026-01-01T00:30:00.000+00:00"
      }
    },
    "request": {
      "method": "PUT",
      "url": "Encounter/518dfbff-ae73-4c44-ad97-159fe5cc7de3"
    }
  }, {
    "fullUrl": "https://madie.cms.gov/Observation/c3979246-668d-4c30-aaa0-647f5314eb18",
    "resource": {
      "resourceType": "Observation",
      "id": "c3979246-668d-4c30-aaa0-647f5314eb18",
      "meta": {
        "profile": [ "http://hl7.org/fhir/us/core/StructureDefinition/us-core-bmi" ]
      },
      "status": "final",
      "category": [ {
        "coding": [ {
          "system": "http://terminology.hl7.org/CodeSystem/observation-category",
          "code": "vital-signs",
          "display": "Vital Signs"
        } ]
      } ],
      "code": {
        "coding": [ {
          "system": "http://loinc.org",
          "code": "39156-5",
          "display": "Body mass index (BMI) [Ratio]",
          "userSelected": true
        } ]
      },
      "subject": {
        "reference": "Patient/8e38b797-4dec-437d-8bf0-6f0fc78f8ea7"
      },
      "effectiveDateTime": "2026-01-01T00:30:00.000+00:00",
      "valueQuantity": {
        "value": 30.0,
        "unit": "kg/m2",
        "system": "http://unitsofmeasure.org",
        "code": "kg/m2"
      }
    },
    "request": {
      "method": "PUT",
      "url": "Observation/c3979246-668d-4c30-aaa0-647f5314eb18"
    }
  }, {
    "fullUrl": "https://madie.cms.gov/Condition/0df9f364-7793-47b8-b8f7-7c5add336935",
    "resource": {
      "resourceType": "Condition",
      "id": "0df9f364-7793-47b8-b8f7-7c5add336935",
      "meta": {
        "profile": [ "http://hl7.org/fhir/us/qicore/StructureDefinition/qicore-condition-problems-health-concerns" ]
      },
      "clinicalStatus": {
        "coding": [ {
          "system": "http://terminology.hl7.org/CodeSystem/condition-clinical",
          "code": "active",
          "display": "active",
          "userSelected": true
        } ]
      },
      "category": [ {
        "coding": [ {
          "system": "http://hl7.org/fhir/us/core/CodeSystem/condition-category",
          "code": "health-concern",
          "display": "Health Concern"
        }, {
          "system": "http://snomed.info/sct",
          "code": "439401001",
          "display": "Diagnosis"
        } ]
      } ],
      "code": {
        "coding": [ {
          "system": "http://hl7.org/fhir/sid/icd-10-cm",
          "version": "2023",
          "code": "E66.01",
          "display": "Morbid (severe) obesity due to excess calories",
          "userSelected": true
        } ]
      },
      "subject": {
        "reference": "Patient/8e38b797-4dec-437d-8bf0-6f0fc78f8ea7"
      },
      "onsetDateTime": "2026-01-01T00:05:00.000+00:00"
    },
    "request": {
      "method": "PUT",
      "url": "Condition/0df9f364-7793-47b8-b8f7-7c5add336935"
    }
  }, {
    "fullUrl": "https://madie.cms.gov/ServiceRequest/c9e6466d-361c-45f5-9e69-f0c27bdf7002",
    "resource": {
      "resourceType": "ServiceRequest",
      "id": "c9e6466d-361c-45f5-9e69-f0c27bdf7002",
      "meta": {
        "profile": [ "http://hl7.org/fhir/us/qicore/StructureDefinition/qicore-servicerequest" ]
      },
      "status": "active",
      "intent": "order",
      "code": {
        "coding": [ {
          "system": "http://snomed.info/sct",
          "version": "2022-03",
          "code": "182922004",
          "display": "Dietary regime (regime/therapy)",
          "userSelected": true
        } ]
      },
      "subject": {
        "reference": "Patient/8e38b797-4dec-437d-8bf0-6f0fc78f8ea7"
      },
      "authoredOn": "2026-01-01T00:30:00.000+00:00",
      "reasonCode": [ {
        "coding": [ {
          "system": "http://hl7.org/fhir/sid/icd-10-cm",
          "version": "2023",
          "code": "E66.01",
          "display": "Morbid (severe) obesity due to excess calories",
          "userSelected": true
        } ]
      } ]
    },
    "request": {
      "method": "PUT",
      "url": "ServiceRequest/c9e6466d-361c-45f5-9e69-f0c27bdf7002"
    }
  }, {
    "fullUrl": "https://madie.cms.gov/Coverage/fc584573-4f33-4b8b-99eb-3769f3b658e0",
    "resource": {
      "resourceType": "Coverage",
      "id": "fc584573-4f33-4b8b-99eb-3769f3b658e0",
      "meta": {
        "profile": [ "http://hl7.org/fhir/us/qicore/StructureDefinition/qicore-coverage" ]
      },
      "status": "active",
      "beneficiary": {
        "reference": "Patient/8e38b797-4dec-437d-8bf0-6f0fc78f8ea7"
      },
      "payor": [ {
        "reference": "Organization/0cdacdb9-95e5-4cf1-901a-28ddf7df1ad0"
      } ]
    },
    "request": {
      "method": "PUT",
      "url": "Coverage/fc584573-4f33-4b8b-99eb-3769f3b658e0"
    }
  }, {
    "fullUrl": "https://madie.cms.gov/Organization/0cdacdb9-95e5-4cf1-901a-28ddf7df1ad0",
    "resource": {
      "resourceType": "Organization",
      "id": "0cdacdb9-95e5-4cf1-901a-28ddf7df1ad0",
      "meta": {
        "profile": [ "http://hl7.org/fhir/us/qicore/StructureDefinition/qicore-organization" ]
      },
      "identifier": [ {
        "use": "temp",
        "system": "urn:oid:2.16.840.1.113883.4.4",
        "value": "21-3259825"
      } ],
      "active": true,
      "type": [ {
        "coding": [ {
          "system": "http://terminology.hl7.org/CodeSystem/organization-type",
          "code": "pay",
          "display": "Payer"
        } ]
      } ],
      "name": "Blue Cross Blue Shield of Texas",
      "telecom": [ {
        "system": "phone",
        "value": "(+1) 972-766-6900"
      } ],
      "address": [ {
        "use": "billing",
        "type": "postal",
        "line": [ "P.O. Box 660044" ],
        "city": "Dallas",
        "state": "TX",
        "postalCode": "75266-0044",
        "country": "USA"
      } ]
    },
    "request": {
      "method": "PUT",
      "url": "Organization/0cdacdb9-95e5-4cf1-901a-28ddf7df1ad0"
    }
  }, {
    "fullUrl": "https://madie.cms.gov/MeasureReport/ea0e6cae-fae3-4d6c-8685-80a6b87ec928",
    "resource": {
      "resourceType": "MeasureReport",
      "id": "ea0e6cae-fae3-4d6c-8685-80a6b87ec928",
      "meta": {
        "profile": [ "http://hl7.org/fhir/us/cqfmeasures/StructureDefinition/test-case-cqfm" ]
      },
      "contained": [ {
        "resourceType": "Parameters",
        "id": "5e91a521-638d-4841-a2ac-9c39e67f5c09-parameters",
        "parameter": [ {
          "name": "subject",
          "valueString": "8e38b797-4dec-437d-8bf0-6f0fc78f8ea7"
        } ]
      } ],
      "extension": [ {
        "url": "http://hl7.org/fhir/StructureDefinition/cqf-inputParameters",
        "valueReference": {
          "reference": "#5e91a521-638d-4841-a2ac-9c39e67f5c09-parameters"
        }
      }, {
        "url": "http://hl7.org/fhir/us/cqfmeasures/StructureDefinition/cqfm-testCaseDescription",
        "valueMarkdown": "High BMI with dietary intervention ordered - f/u for above normal BMI, condition overweight"
      } ],
      "modifierExtension": [ {
        "url": "http://hl7.org/fhir/us/cqfmeasures/StructureDefinition/cqfm-isTestCase",
        "valueBoolean": true
      } ],
      "status": "complete",
      "type": "individual",
      "measure": "https://madie.cms.gov/Measure/CMS69FHIRPCSBMIScreenAndFollowUp",
      "period": {
        "start": "2026-01-01",
        "end": "2026-12-31"
      },
      "group": [ {
        "id": "Group_1",
        "population": [ {
          "id": "InitialPopulation_1",
          "code": {
            "coding": [ {
              "system": "http://terminology.hl7.org/CodeSystem/measure-population",
              "code": "initial-population",
              "display": "Initial Population"
            } ]
          },
          "count": 1
        }, {
          "id": "Denominator_1",
          "code": {
            "coding": [ {
              "system": "http://terminology.hl7.org/CodeSystem/measure-population",
              "code": "denominator",
              "display": "Denominator"
            } ]
          },
          "count": 1
        }, {
          "id": "DenominatorExclusion_1",
          "code": {
            "coding": [ {
              "system": "http://terminology.hl7.org/CodeSystem/measure-population",
              "code": "denominator-exclusion",
              "display": "Denominator Exclusion"
            } ]
          },
          "count": 0
        }, {
          "id": "Numerator_1",
          "code": {
            "coding": [ {
              "system": "http://terminology.hl7.org/CodeSystem/measure-population",
              "code": "numerator",
              "display": "Numerator"
            } ]
          },
          "count": 1
        }, {
          "id": "DenominatorException_1",
          "code": {
            "coding": [ {
              "system": "http://terminology.hl7.org/CodeSystem/measure-population",
              "code": "denominator-exception",
              "display": "Denominator Exception"
            } ]
          },
          "count": 0
        } ],
        "measureScore": {
          "value": 1.0
        }
      } ],
      "evaluatedResource": [ {
        "reference": "Patient/8e38b797-4dec-437d-8bf0-6f0fc78f8ea7"
      }, {
        "reference": "Encounter/518dfbff-ae73-4c44-ad97-159fe5cc7de3"
      }, {
        "reference": "Observation/c3979246-668d-4c30-aaa0-647f5314eb18"
      }, {
        "reference": "Condition/0df9f364-7793-47b8-b8f7-7c5add336935"
      }, {
        "reference": "ServiceRequest/c9e6466d-361c-45f5-9e69-f0c27bdf7002"
      }, {
        "reference": "Coverage/fc584573-4f33-4b8b-99eb-3769f3b658e0"
      }, {
        "reference": "Organization/0cdacdb9-95e5-4cf1-901a-28ddf7df1ad0"
      } ]
    },
    "request": {
      "method": "PUT",
      "url": "MeasureReport/ea0e6cae-fae3-4d6c-8685-80a6b87ec928"
    }
  } ]
}