{
  "resourceType": "Bundle",
  "id": "62aa5328c4be4c506d4a533c",
  "type": "transaction",
  "entry": [ {
    "fullUrl": "https://madie.cms.gov/Patient/80a53697-3fdb-4721-87aa-64462a6708dd",
    "resource": {
      "resourceType": "Patient",
      "id": "80a53697-3fdb-4721-87aa-64462a6708dd",
      "meta": {
        "profile": [ "http://hl7.org/fhir/us/qicore/StructureDefinition/qicore-patient" ]
      },
      "extension": [ {
        "url": "http://hl7.org/fhir/us/core/StructureDefinition/us-core-race",
        "extension": [ {
          "url": "ombCategory",
          "valueCoding": {
            "system": "urn:oid:2.16.840.1.113883.6.238",
            "code": "2028-9",
            "display": "Asian",
            "userSelected": true
          }
        }, {
          "url": "text",
          "valueString": "Asian"
        } ]
      }, {
        "url": "http://hl7.org/fhir/us/core/StructureDefinition/us-core-ethnicity",
        "extension": [ {
          "url": "ombCategory",
          "valueCoding": {
            "system": "urn:oid:2.16.840.1.113883.6.238",
            "code": "2186-5",
            "display": "Not Hispanic or Latino",
            "userSelected": true
          }
        }, {
          "url": "text",
          "valueString": "Not Hispanic or Latino"
        } ]
      } ],
      "identifier": [ {
        "type": {
          "coding": [ {
            "system": "http://terminology.hl7.org/CodeSystem/v2-0203",
            "code": "MR"
          } ]
        },
        "system": "https://bonnie-fhir.healthit.gov/",
        "value": "62aa5328c4be4c506d4a533c"
      } ],
      "name": [ {
        "family": "DENEXPass",
        "given": [ "PregnancyOnset1YearAgo" ]
      } ],
      "gender": "female",
      "birthDate": "2001-01-01"
    },
    "request": {
      "method": "PUT",
      "url": "Patient/80a53697-3fdb-4721-87aa-64462a6708dd"
    }
  }, {
    "fullUrl": "https://madie.cms.gov/Encounter/7c548627-5743-4918-96b3-dc2d00da5939",
    "resource": {
      "resourceType": "Encounter",
      "id": "7c548627-5743-4918-96b3-dc2d00da5939",
      "meta": {
        "profile": [ "http://hl7.org/fhir/us/qicore/StructureDefinition/qicore-encounter" ]
      },
      "status": "finished",
      "class": {
        "system": "http://terminology.hl7.org/CodeSystem/v3-ActCode",
        "code": "AMB",
        "display": "ambulatory"
      },
      "type": [ {
        "coding": [ {
          "system": "http://snomed.info/sct",
          "version": "2022-03",
          "code": "10197000",
          "display": "Psychiatric interview and evaluation (procedure)",
          "userSelected": true
        } ]
      } ],
      "subject": {
        "reference": "Patient/80a53697-3fdb-4721-87aa-64462a6708dd"
      },
      "period": {
        "start": "2026-01-01T00:00:00.000+00:00",
        "end": "2026-01-01T00:30:00.000+00:00"
      }
    },
    "request": {
      "method": "PUT",
      "url": "Encounter/7c548627-5743-4918-96b3-dc2d00da5939"
    }
  }, {
    "fullUrl": "https://madie.cms.gov/Condition/e9e4f8fe-6613-483b-a02a-ff2779b64a89",
    "resource": {
      "resourceType": "Condition",
      "id": "e9e4f8fe-6613-483b-a02a-ff2779b64a89",
      "meta": {
        "profile": [ "http://hl7.org/fhir/us/qicore/StructureDefinition/qicore-condition-problems-health-concerns" ]
      },
      "clinicalStatus": {
        "coding": [ {
          "system": "http://terminology.hl7.org/CodeSystem/condition-clinical",
          "code": "active",
          "display": "active",
          "userSelected": true
        } ]
      },
      "category": [ {
        "coding": [ {
          "system": "http://terminology.hl7.org/CodeSystem/condition-category",
          "code": "problem-list-item",
          "display": "Problem List Item"
        }, {
          "system": "http://snomed.info/sct",
          "code": "439401001",
          "display": "Diagnosis"
        } ]
      } ],
      "code": {
        "coding": [ {
          "system": "http://snomed.info/sct",
          "version": "2022-03",
          "code": "10231000132102",
          "display": "In-vitro fertilization pregnancy (finding)",
          "userSelected": true
        } ]
      },
      "subject": {
        "reference": "Patient/80a53697-3fdb-4721-87aa-64462a6708dd"
      },
      "onsetDateTime": "2024-01-01T00:30:00.000+00:00"
    },
    "request": {
      "method": "PUT",
      "url": "Condition/e9e4f8fe-6613-483b-a02a-ff2779b64a89"
    }
  }, {
    "fullUrl": "https://madie.cms.gov/Coverage/1835624f-928a-4246-a2c7-089a6dcf191e",
    "resource": {
      "resourceType": "Coverage",
      "id": "1835624f-928a-4246-a2c7-089a6dcf191e",
      "meta": {
        "profile": [ "http://hl7.org/fhir/us/qicore/StructureDefinition/qicore-coverage" ]
      },
      "status": "active",
      "beneficiary": {
        "reference": "Patient/80a53697-3fdb-4721-87aa-64462a6708dd"
      },
      "payor": [ {
        "reference": "Organization/5a644041-8b8a-4bba-ae9b-7b58c33e33fb"
      } ]
    },
    "request": {
      "method": "PUT",
      "url": "Coverage/1835624f-928a-4246-a2c7-089a6dcf191e"
    }
  }, {
    "fullUrl": "https://madie.cms.gov/Organization/5a644041-8b8a-4bba-ae9b-7b58c33e33fb",
    "resource": {
      "resourceType": "Organization",
      "id": "5a644041-8b8a-4bba-ae9b-7b58c33e33fb",
      "meta": {
        "profile": [ "http://hl7.org/fhir/us/qicore/StructureDefinition/qicore-organization" ]
      },
      "identifier": [ {
        "use": "temp",
        "system": "urn:oid:2.16.840.1.113883.4.4",
        "value": "21-3259825"
      } ],
      "active": true,
      "type": [ {
        "coding": [ {
          "system": "http://terminology.hl7.org/CodeSystem/organization-type",
          "code": "pay",
          "display": "Payer"
        } ]
      } ],
      "name": "Blue Cross Blue Shield of Texas",
      "telecom": [ {
        "system": "phone",
        "value": "(+1) 972-766-6900"
      } ],
      "address": [ {
        "use": "billing",
        "type": "postal",
        "line": [ "P.O. Box 660044" ],
        "city": "Dallas",
        "state": "TX",
        "postalCode": "75266-0044",
        "country": "USA"
      } ]
    },
    "request": {
      "method": "PUT",
      "url": "Organization/5a644041-8b8a-4bba-ae9b-7b58c33e33fb"
    }
  }, {
    "fullUrl": "https://madie.cms.gov/MeasureReport/45bde13a-3921-492c-af57-74cc45dcfc31",
    "resource": {
      "resourceType": "MeasureReport",
      "id": "45bde13a-3921-492c-af57-74cc45dcfc31",
      "meta": {
        "profile": [ "http://hl7.org/fhir/us/cqfmeasures/StructureDefinition/test-case-cqfm" ]
      },
      "contained": [ {
        "resourceType": "Parameters",
        "id": "118374a3-586b-4f3f-a4eb-1478a05ab827-parameters",
        "parameter": [ {
          "name": "subject",
          "valueString": "80a53697-3fdb-4721-87aa-64462a6708dd"
        } ]
      } ],
      "extension": [ {
        "url": "http://hl7.org/fhir/StructureDefinition/cqf-inputParameters",
        "valueReference": {
          "reference": "#118374a3-586b-4f3f-a4eb-1478a05ab827-parameters"
        }
      }, {
        "url": "http://hl7.org/fhir/us/cqfmeasures/StructureDefinition/cqfm-testCaseDescription",
        "valueMarkdown": "Enc first day of MP, Pregnancy onset 1/1/ of prior year, 12 months later no abatement date added to chart, Test calculates as still pregnant.  "
      } ],
      "modifierExtension": [ {
        "url": "http://hl7.org/fhir/us/cqfmeasures/StructureDefinition/cqfm-isTestCase",
        "valueBoolean": true
      } ],
      "status": "complete",
      "type": "individual",
      "measure": "https://madie.cms.gov/Measure/CMS69FHIRPCSBMIScreenAndFollowUp",
      "period": {
        "start": "2026-01-01",
        "end": "2026-12-31"
      },
      "group": [ {
        "id": "Group_1",
        "population": [ {
          "id": "InitialPopulation_1",
          "code": {
            "coding": [ {
              "system": "http://terminology.hl7.org/CodeSystem/measure-population",
              "code": "initial-population",
              "display": "Initial Population"
            } ]
          },
          "count": 1
        }, {
          "id": "Denominator_1",
          "code": {
            "coding": [ {
              "system": "http://terminology.hl7.org/CodeSystem/measure-population",
              "code": "denominator",
              "display": "Denominator"
            } ]
          },
          "count": 1
        }, {
          "id": "DenominatorExclusion_1",
          "code": {
            "coding": [ {
              "system": "http://terminology.hl7.org/CodeSystem/measure-population",
              "code": "denominator-exclusion",
              "display": "Denominator Exclusion"
            } ]
          },
          "count": 1
        }, {
          "id": "Numerator_1",
          "code": {
            "coding": [ {
              "system": "http://terminology.hl7.org/CodeSystem/measure-population",
              "code": "numerator",
              "display": "Numerator"
            } ]
          },
          "count": 0
        }, {
          "id": "DenominatorException_1",
          "code": {
            "coding": [ {
              "system": "http://terminology.hl7.org/CodeSystem/measure-population",
              "code": "denominator-exception",
              "display": "Denominator Exception"
            } ]
          },
          "count": 0
        } ],
        "measureScore": {
          "value": 1.0
        }
      } ],
      "evaluatedResource": [ {
        "reference": "Patient/80a53697-3fdb-4721-87aa-64462a6708dd"
      }, {
        "reference": "Encounter/7c548627-5743-4918-96b3-dc2d00da5939"
      }, {
        "reference": "Condition/e9e4f8fe-6613-483b-a02a-ff2779b64a89"
      }, {
        "reference": "Coverage/1835624f-928a-4246-a2c7-089a6dcf191e"
      }, {
        "reference": "Organization/5a644041-8b8a-4bba-ae9b-7b58c33e33fb"
      } ]
    },
    "request": {
      "method": "PUT",
      "url": "MeasureReport/45bde13a-3921-492c-af57-74cc45dcfc31"
    }
  } ]
}