{
  "resourceType": "Bundle",
  "id": "610965b898086b538055c153",
  "type": "transaction",
  "entry": [ {
    "fullUrl": "https://madie.cms.gov/Patient/ffb7a0c4-fcef-46ff-9593-f3cebe574e21",
    "resource": {
      "resourceType": "Patient",
      "id": "ffb7a0c4-fcef-46ff-9593-f3cebe574e21",
      "meta": {
        "profile": [ "http://hl7.org/fhir/us/qicore/StructureDefinition/qicore-patient" ]
      },
      "text": {
        "status": "generated",
        "div": "<div xmlns=\"http://www.w3.org/1999/xhtml\"><div class=\"hapiHeaderText\">LabTestHIVDxDuringMPrelevantDatetime <b>NUMERPASS </b></div><table class=\"hapiPropertyTable\"><tbody><tr><td>Date of birth</td><td><span>31 July 1992</span></td></tr></tbody></table></div>"
      },
      "extension": [ {
        "url": "http://hl7.org/fhir/us/core/StructureDefinition/us-core-race",
        "extension": [ {
          "url": "ombCategory",
          "valueCoding": {
            "system": "urn:oid:2.16.840.1.113883.6.238",
            "code": "1002-5",
            "display": "American Indian or Alaska Native",
            "userSelected": true
          }
        }, {
          "url": "text",
          "valueString": "American Indian or Alaska Native"
        }, {
          "url": "detailed",
          "valueCoding": {
            "system": "urn:oid:2.16.840.1.113883.6.238",
            "code": "1653-5",
            "display": "Tohono O'Odham"
          }
        } ]
      }, {
        "url": "http://hl7.org/fhir/us/core/StructureDefinition/us-core-ethnicity",
        "extension": [ {
          "url": "ombCategory",
          "valueCoding": {
            "system": "urn:oid:2.16.840.1.113883.6.238",
            "code": "2135-2",
            "display": "Hispanic or Latino",
            "userSelected": true
          }
        }, {
          "url": "text",
          "valueString": "Not Hispanic or Latino"
        }, {
          "url": "detailed",
          "valueCoding": {
            "system": "urn:oid:2.16.840.1.113883.6.238",
            "code": "2153-5",
            "display": "Mexican American Indian"
          }
        } ]
      } ],
      "identifier": [ {
        "type": {
          "coding": [ {
            "system": "http://terminology.hl7.org/CodeSystem/v2-0203",
            "code": "MR"
          } ]
        },
        "system": "https://bonnie-fhir.healthit.gov/",
        "value": "610965b898086b538055c153"
      } ],
      "active": true,
      "name": [ {
        "use": "usual",
        "family": "NUMERPass",
        "given": [ "LabTestHIVDxDuringMPrelevantDatetime" ]
      } ],
      "gender": "male",
      "birthDate": "1994-07-31"
    },
    "request": {
      "method": "PUT",
      "url": "Patient/ffb7a0c4-fcef-46ff-9593-f3cebe574e21"
    }
  }, {
    "fullUrl": "https://madie.cms.gov/Condition/5b2fbfc6-c909-47d0-a3e9-49c1b9bf7d32",
    "resource": {
      "resourceType": "Condition",
      "id": "5b2fbfc6-c909-47d0-a3e9-49c1b9bf7d32",
      "meta": {
        "profile": [ "http://hl7.org/fhir/us/qicore/StructureDefinition/qicore-condition-problems-health-concerns" ]
      },
      "clinicalStatus": {
        "coding": [ {
          "system": "http://terminology.hl7.org/CodeSystem/condition-clinical",
          "code": "active"
        } ]
      },
      "verificationStatus": {
        "coding": [ {
          "system": "http://terminology.hl7.org/CodeSystem/condition-ver-status",
          "code": "confirmed",
          "display": "Confirmed",
          "userSelected": true
        } ]
      },
      "category": [ {
        "coding": [ {
          "system": "http://terminology.hl7.org/CodeSystem/condition-category",
          "code": "problems-list-item",
          "display": "Problem List Item",
          "userSelected": true
        } ]
      } ],
      "code": {
        "coding": [ {
          "system": "http://hl7.org/fhir/sid/icd-9-cm",
          "code": "042"
        } ]
      },
      "subject": {
        "reference": "Patient/ffb7a0c4-fcef-46ff-9593-f3cebe574e21"
      },
      "onsetDateTime": "2026-07-31T08:00:00.000+00:00",
      "abatementDateTime": "2026-10-24T08:00:00.000+00:00"
    },
    "request": {
      "method": "PUT",
      "url": "Condition/5b2fbfc6-c909-47d0-a3e9-49c1b9bf7d32"
    }
  }, {
    "fullUrl": "https://madie.cms.gov/Encounter/435d29d9-6db7-4b57-b126-ddcda94f4e0c",
    "resource": {
      "resourceType": "Encounter",
      "id": "435d29d9-6db7-4b57-b126-ddcda94f4e0c",
      "meta": {
        "profile": [ "http://hl7.org/fhir/us/qicore/StructureDefinition/qicore-encounter" ]
      },
      "status": "finished",
      "class": {
        "system": "http://terminology.hl7.org/CodeSystem/v3-ActCode",
        "code": "AMB",
        "display": "ambulatory",
        "userSelected": true
      },
      "type": [ {
        "coding": [ {
          "system": "http://www.ama-assn.org/go/cpt",
          "code": "99214"
        } ]
      } ],
      "subject": {
        "reference": "Patient/ffb7a0c4-fcef-46ff-9593-f3cebe574e21"
      },
      "period": {
        "start": "2026-10-24T08:00:00.000+00:00",
        "end": "2026-10-24T08:15:00.000+00:00"
      }
    },
    "request": {
      "method": "PUT",
      "url": "Encounter/435d29d9-6db7-4b57-b126-ddcda94f4e0c"
    }
  }, {
    "fullUrl": "https://madie.cms.gov/Observation/2fa1abab-582b-4c21-a79b-32c0fe92b939",
    "resource": {
      "resourceType": "Observation",
      "id": "2fa1abab-582b-4c21-a79b-32c0fe92b939",
      "meta": {
        "profile": [ "http://hl7.org/fhir/us/qicore/StructureDefinition/qicore-observation-lab" ]
      },
      "status": "final",
      "category": [ {
        "coding": [ {
          "system": "http://terminology.hl7.org/CodeSystem/observation-category",
          "code": "laboratory",
          "display": "Laboratory",
          "userSelected": true
        } ]
      } ],
      "code": {
        "coding": [ {
          "system": "http://loinc.org",
          "code": "75622-1"
        } ]
      },
      "subject": {
        "reference": "Patient/ffb7a0c4-fcef-46ff-9593-f3cebe574e21"
      },
      "effectiveDateTime": "2026-07-31T08:00:00.000+00:00",
      "valueBoolean": true
    },
    "request": {
      "method": "PUT",
      "url": "Observation/2fa1abab-582b-4c21-a79b-32c0fe92b939"
    }
  }, {
    "fullUrl": "https://madie.cms.gov/MeasureReport/d2672fd7-65b5-445e-b7c4-060b42d97cce",
    "resource": {
      "resourceType": "MeasureReport",
      "id": "d2672fd7-65b5-445e-b7c4-060b42d97cce",
      "meta": {
        "profile": [ "http://hl7.org/fhir/us/cqfmeasures/StructureDefinition/test-case-cqfm" ]
      },
      "contained": [ {
        "resourceType": "Parameters",
        "id": "ecbeed4c-3904-4c4f-9fb6-9a3e5eb6067c-parameters",
        "parameter": [ {
          "name": "subject",
          "valueString": "ffb7a0c4-fcef-46ff-9593-f3cebe574e21"
        } ]
      } ],
      "extension": [ {
        "url": "http://hl7.org/fhir/StructureDefinition/cqf-inputParameters",
        "valueReference": {
          "reference": "#ecbeed4c-3904-4c4f-9fb6-9a3e5eb6067c-parameters"
        }
      }, {
        "url": "http://hl7.org/fhir/us/cqfmeasures/StructureDefinition/cqfm-testCaseDescription",
        "valueMarkdown": "Patient 31 at start of MP, qual encounter during MP, HIV diagnosis starts during MP, invalid lab test at 31 during MP. - relevantDatetime"
      } ],
      "modifierExtension": [ {
        "url": "http://hl7.org/fhir/us/cqfmeasures/StructureDefinition/cqfm-isTestCase",
        "valueBoolean": true
      } ],
      "status": "complete",
      "type": "individual",
      "measure": "https://madie.cms.gov/Measure/CMS349FHIRHIVScreening",
      "period": {
        "start": "2026-01-01",
        "end": "2026-12-31"
      },
      "group": [ {
        "id": "Group_1",
        "population": [ {
          "id": "InitialPopulation_1",
          "code": {
            "coding": [ {
              "system": "http://terminology.hl7.org/CodeSystem/measure-population",
              "code": "initial-population",
              "display": "Initial Population"
            } ]
          },
          "count": 1
        }, {
          "id": "Denominator_1",
          "code": {
            "coding": [ {
              "system": "http://terminology.hl7.org/CodeSystem/measure-population",
              "code": "denominator",
              "display": "Denominator"
            } ]
          },
          "count": 1
        }, {
          "id": "DenominatorExclusion_1",
          "code": {
            "coding": [ {
              "system": "http://terminology.hl7.org/CodeSystem/measure-population",
              "code": "denominator-exclusion",
              "display": "Denominator Exclusion"
            } ]
          },
          "count": 0
        }, {
          "id": "Numerator_1",
          "code": {
            "coding": [ {
              "system": "http://terminology.hl7.org/CodeSystem/measure-population",
              "code": "numerator",
              "display": "Numerator"
            } ]
          },
          "count": 1
        }, {
          "id": "DenominatorException_1",
          "code": {
            "coding": [ {
              "system": "http://terminology.hl7.org/CodeSystem/measure-population",
              "code": "denominator-exception",
              "display": "Denominator Exception"
            } ]
          },
          "count": 0
        } ],
        "measureScore": {
          "value": 1.0
        }
      } ],
      "evaluatedResource": [ {
        "reference": "Patient/ffb7a0c4-fcef-46ff-9593-f3cebe574e21"
      }, {
        "reference": "Condition/5b2fbfc6-c909-47d0-a3e9-49c1b9bf7d32"
      }, {
        "reference": "Encounter/435d29d9-6db7-4b57-b126-ddcda94f4e0c"
      }, {
        "reference": "Observation/2fa1abab-582b-4c21-a79b-32c0fe92b939"
      } ]
    },
    "request": {
      "method": "PUT",
      "url": "MeasureReport/d2672fd7-65b5-445e-b7c4-060b42d97cce"
    }
  } ]
}