{
  "resourceType": "Bundle",
  "id": "62aa6533c4be4c506d4a534f",
  "type": "transaction",
  "entry": [ {
    "fullUrl": "https://madie.cms.gov/Patient/1102009b-6f05-4bab-9fd1-191e81cf50e8",
    "resource": {
      "resourceType": "Patient",
      "id": "1102009b-6f05-4bab-9fd1-191e81cf50e8",
      "meta": {
        "profile": [ "http://hl7.org/fhir/us/qicore/StructureDefinition/qicore-patient" ]
      },
      "extension": [ {
        "url": "http://hl7.org/fhir/us/core/StructureDefinition/us-core-race",
        "extension": [ {
          "url": "ombCategory",
          "valueCoding": {
            "system": "urn:oid:2.16.840.1.113883.6.238",
            "code": "2106-3",
            "display": "White",
            "userSelected": true
          }
        }, {
          "url": "text",
          "valueString": "White"
        } ]
      }, {
        "url": "http://hl7.org/fhir/us/core/StructureDefinition/us-core-ethnicity",
        "extension": [ {
          "url": "ombCategory",
          "valueCoding": {
            "system": "urn:oid:2.16.840.1.113883.6.238",
            "code": "2186-5",
            "display": "Not Hispanic or Latino",
            "userSelected": true
          }
        }, {
          "url": "text",
          "valueString": "Not Hispanic or Latino"
        } ]
      } ],
      "identifier": [ {
        "type": {
          "coding": [ {
            "system": "http://terminology.hl7.org/CodeSystem/v2-0203",
            "code": "MR"
          } ]
        },
        "system": "https://bonnie-fhir.healthit.gov/",
        "value": "62aa6533c4be4c506d4a534f"
      } ],
      "name": [ {
        "family": "NUMERPass",
        "given": [ "HighBMIAndInterventionPerformed" ]
      } ],
      "gender": "unknown",
      "birthDate": "1957-11-07"
    },
    "request": {
      "method": "PUT",
      "url": "Patient/1102009b-6f05-4bab-9fd1-191e81cf50e8"
    }
  }, {
    "fullUrl": "https://madie.cms.gov/Encounter/dc1381db-c9b8-481c-99f9-b8567f163d13",
    "resource": {
      "resourceType": "Encounter",
      "id": "dc1381db-c9b8-481c-99f9-b8567f163d13",
      "meta": {
        "profile": [ "http://hl7.org/fhir/us/qicore/StructureDefinition/qicore-encounter" ]
      },
      "status": "finished",
      "class": {
        "system": "http://terminology.hl7.org/CodeSystem/v3-ActCode",
        "code": "AMB",
        "display": "ambulatory"
      },
      "type": [ {
        "coding": [ {
          "system": "http://snomed.info/sct",
          "version": "2022-03",
          "code": "10197000",
          "display": "Psychiatric interview and evaluation (procedure)",
          "userSelected": true
        } ]
      } ],
      "subject": {
        "reference": "Patient/1102009b-6f05-4bab-9fd1-191e81cf50e8"
      },
      "period": {
        "start": "2026-01-01T00:00:00.000+00:00",
        "end": "2026-01-01T00:30:00.000+00:00"
      }
    },
    "request": {
      "method": "PUT",
      "url": "Encounter/dc1381db-c9b8-481c-99f9-b8567f163d13"
    }
  }, {
    "fullUrl": "https://madie.cms.gov/Observation/8f52af71-1377-4778-a7f4-18a792829c22",
    "resource": {
      "resourceType": "Observation",
      "id": "8f52af71-1377-4778-a7f4-18a792829c22",
      "meta": {
        "profile": [ "http://hl7.org/fhir/us/core/StructureDefinition/us-core-bmi" ]
      },
      "status": "amended",
      "category": [ {
        "coding": [ {
          "system": "http://terminology.hl7.org/CodeSystem/observation-category",
          "code": "vital-signs",
          "display": "Vital Signs"
        } ]
      } ],
      "code": {
        "coding": [ {
          "system": "http://loinc.org",
          "code": "39156-5",
          "display": "Body mass index (BMI) [Ratio]",
          "userSelected": true
        } ]
      },
      "subject": {
        "reference": "Patient/1102009b-6f05-4bab-9fd1-191e81cf50e8"
      },
      "effectiveDateTime": "2026-01-01T00:30:00.000+00:00",
      "valueQuantity": {
        "value": 25.0,
        "unit": "kg/m2",
        "system": "http://unitsofmeasure.org",
        "code": "kg/m2"
      }
    },
    "request": {
      "method": "PUT",
      "url": "Observation/8f52af71-1377-4778-a7f4-18a792829c22"
    }
  }, {
    "fullUrl": "https://madie.cms.gov/Procedure/c0ea8aca-0cde-4960-803c-3798d278136d",
    "resource": {
      "resourceType": "Procedure",
      "id": "c0ea8aca-0cde-4960-803c-3798d278136d",
      "meta": {
        "profile": [ "http://hl7.org/fhir/us/qicore/StructureDefinition/qicore-procedure" ]
      },
      "extension": [ {
        "url": "http://hl7.org/fhir/us/qicore/StructureDefinition/qicore-recorded",
        "valueDateTime": "2026-01-01T00:30:00.000+00:00"
      } ],
      "status": "completed",
      "code": {
        "coding": [ {
          "system": "http://snomed.info/sct",
          "version": "2022-03",
          "code": "182922004",
          "display": "Dietary regime (regime/therapy)",
          "userSelected": true
        } ]
      },
      "subject": {
        "reference": "Patient/1102009b-6f05-4bab-9fd1-191e81cf50e8"
      },
      "performedDateTime": "2026-01-01T00:30:00.000+00:00",
      "reasonCode": [ {
        "coding": [ {
          "system": "http://hl7.org/fhir/sid/icd-10-cm",
          "code": "E66.01",
          "display": "Morbid (severe) obesity due to excess calories",
          "userSelected": true
        } ]
      } ]
    },
    "request": {
      "method": "PUT",
      "url": "Procedure/c0ea8aca-0cde-4960-803c-3798d278136d"
    }
  }, {
    "fullUrl": "https://madie.cms.gov/Coverage/b9bc3eac-6f12-41e0-b6a3-daa94d4b419e",
    "resource": {
      "resourceType": "Coverage",
      "id": "b9bc3eac-6f12-41e0-b6a3-daa94d4b419e",
      "meta": {
        "profile": [ "http://hl7.org/fhir/us/qicore/StructureDefinition/qicore-coverage" ]
      },
      "status": "active",
      "beneficiary": {
        "reference": "Patient/1102009b-6f05-4bab-9fd1-191e81cf50e8"
      },
      "payor": [ {
        "reference": "Organization/020a9d19-66b3-47b1-a9b3-ac1f237cbde8"
      } ]
    },
    "request": {
      "method": "PUT",
      "url": "Coverage/b9bc3eac-6f12-41e0-b6a3-daa94d4b419e"
    }
  }, {
    "fullUrl": "https://madie.cms.gov/Organization/020a9d19-66b3-47b1-a9b3-ac1f237cbde8",
    "resource": {
      "resourceType": "Organization",
      "id": "020a9d19-66b3-47b1-a9b3-ac1f237cbde8",
      "meta": {
        "profile": [ "http://hl7.org/fhir/us/qicore/StructureDefinition/qicore-organization" ]
      },
      "identifier": [ {
        "use": "temp",
        "system": "urn:oid:2.16.840.1.113883.4.4",
        "value": "21-3259825"
      } ],
      "active": true,
      "type": [ {
        "coding": [ {
          "system": "http://terminology.hl7.org/CodeSystem/organization-type",
          "code": "pay",
          "display": "Payer"
        } ]
      } ],
      "name": "Blue Cross Blue Shield of Texas",
      "telecom": [ {
        "system": "phone",
        "value": "(+1) 972-766-6900"
      } ],
      "address": [ {
        "use": "billing",
        "type": "postal",
        "line": [ "P.O. Box 660044" ],
        "city": "Dallas",
        "state": "TX",
        "postalCode": "75266-0044",
        "country": "USA"
      } ]
    },
    "request": {
      "method": "PUT",
      "url": "Organization/020a9d19-66b3-47b1-a9b3-ac1f237cbde8"
    }
  }, {
    "fullUrl": "https://madie.cms.gov/MeasureReport/6e69eeb0-9b32-43b9-8c05-e36994add55c",
    "resource": {
      "resourceType": "MeasureReport",
      "id": "6e69eeb0-9b32-43b9-8c05-e36994add55c",
      "meta": {
        "profile": [ "http://hl7.org/fhir/us/cqfmeasures/StructureDefinition/test-case-cqfm" ]
      },
      "contained": [ {
        "resourceType": "Parameters",
        "id": "5fbb6e8b-0f2d-4b27-b6c7-3e174f01da64-parameters",
        "parameter": [ {
          "name": "subject",
          "valueString": "1102009b-6f05-4bab-9fd1-191e81cf50e8"
        } ]
      } ],
      "extension": [ {
        "url": "http://hl7.org/fhir/StructureDefinition/cqf-inputParameters",
        "valueReference": {
          "reference": "#5fbb6e8b-0f2d-4b27-b6c7-3e174f01da64-parameters"
        }
      }, {
        "url": "http://hl7.org/fhir/us/cqfmeasures/StructureDefinition/cqfm-testCaseDescription",
        "valueMarkdown": "Enc first day of MP,  BMI high at 25 kg/m2 with follow up and dietary recommendations  with reason code"
      } ],
      "modifierExtension": [ {
        "url": "http://hl7.org/fhir/us/cqfmeasures/StructureDefinition/cqfm-isTestCase",
        "valueBoolean": true
      } ],
      "status": "complete",
      "type": "individual",
      "measure": "https://madie.cms.gov/Measure/CMS69FHIRPCSBMIScreenAndFollowUp",
      "period": {
        "start": "2026-01-01",
        "end": "2026-12-31"
      },
      "group": [ {
        "id": "Group_1",
        "population": [ {
          "id": "InitialPopulation_1",
          "code": {
            "coding": [ {
              "system": "http://terminology.hl7.org/CodeSystem/measure-population",
              "code": "initial-population",
              "display": "Initial Population"
            } ]
          },
          "count": 1
        }, {
          "id": "Denominator_1",
          "code": {
            "coding": [ {
              "system": "http://terminology.hl7.org/CodeSystem/measure-population",
              "code": "denominator",
              "display": "Denominator"
            } ]
          },
          "count": 1
        }, {
          "id": "DenominatorExclusion_1",
          "code": {
            "coding": [ {
              "system": "http://terminology.hl7.org/CodeSystem/measure-population",
              "code": "denominator-exclusion",
              "display": "Denominator Exclusion"
            } ]
          },
          "count": 0
        }, {
          "id": "Numerator_1",
          "code": {
            "coding": [ {
              "system": "http://terminology.hl7.org/CodeSystem/measure-population",
              "code": "numerator",
              "display": "Numerator"
            } ]
          },
          "count": 1
        }, {
          "id": "DenominatorException_1",
          "code": {
            "coding": [ {
              "system": "http://terminology.hl7.org/CodeSystem/measure-population",
              "code": "denominator-exception",
              "display": "Denominator Exception"
            } ]
          },
          "count": 0
        } ],
        "measureScore": {
          "value": 1.0
        }
      } ],
      "evaluatedResource": [ {
        "reference": "Patient/1102009b-6f05-4bab-9fd1-191e81cf50e8"
      }, {
        "reference": "Encounter/dc1381db-c9b8-481c-99f9-b8567f163d13"
      }, {
        "reference": "Observation/8f52af71-1377-4778-a7f4-18a792829c22"
      }, {
        "reference": "Procedure/c0ea8aca-0cde-4960-803c-3798d278136d"
      }, {
        "reference": "Coverage/b9bc3eac-6f12-41e0-b6a3-daa94d4b419e"
      }, {
        "reference": "Organization/020a9d19-66b3-47b1-a9b3-ac1f237cbde8"
      } ]
    },
    "request": {
      "method": "PUT",
      "url": "MeasureReport/6e69eeb0-9b32-43b9-8c05-e36994add55c"
    }
  } ]
}