{
  "resourceType": "Bundle",
  "id": "610965b998086b538055c159",
  "type": "transaction",
  "entry": [ {
    "fullUrl": "https://madie.cms.gov/Patient/f24d0ae4-0daf-4f7e-85c8-679360f29219",
    "resource": {
      "resourceType": "Patient",
      "id": "f24d0ae4-0daf-4f7e-85c8-679360f29219",
      "meta": {
        "profile": [ "http://hl7.org/fhir/us/qicore/StructureDefinition/qicore-patient" ]
      },
      "text": {
        "status": "generated",
        "div": "<div xmlns=\"http://www.w3.org/1999/xhtml\"><div class=\"hapiHeaderText\">TwoLabBothInvalidTiming <b>NUMERFAIL </b></div><table class=\"hapiPropertyTable\"><tbody><tr><td>Date of birth</td><td><span>31 July 1992</span></td></tr></tbody></table></div>"
      },
      "extension": [ {
        "url": "http://hl7.org/fhir/us/core/StructureDefinition/us-core-race",
        "extension": [ {
          "url": "ombCategory",
          "valueCoding": {
            "system": "urn:oid:2.16.840.1.113883.6.238",
            "code": "2054-5",
            "display": "Black or African American",
            "userSelected": true
          }
        }, {
          "url": "text",
          "valueString": "Black or African American"
        } ]
      }, {
        "url": "http://hl7.org/fhir/us/core/StructureDefinition/us-core-ethnicity",
        "extension": [ {
          "url": "ombCategory",
          "valueCoding": {
            "system": "urn:oid:2.16.840.1.113883.6.238",
            "code": "2135-2",
            "display": "Hispanic or Latino",
            "userSelected": true
          }
        }, {
          "url": "text",
          "valueString": "Hispanic or Latino"
        } ]
      } ],
      "identifier": [ {
        "type": {
          "coding": [ {
            "system": "http://terminology.hl7.org/CodeSystem/v2-0203",
            "code": "MR"
          } ]
        },
        "system": "https://bonnie-fhir.healthit.gov/",
        "value": "610965b998086b538055c159"
      } ],
      "active": true,
      "name": [ {
        "use": "usual",
        "family": "NUMERFail",
        "given": [ "TwoLabBothInvalidTiming" ]
      } ],
      "gender": "female",
      "birthDate": "2005-07-31"
    },
    "request": {
      "method": "PUT",
      "url": "Patient/f24d0ae4-0daf-4f7e-85c8-679360f29219"
    }
  }, {
    "fullUrl": "https://madie.cms.gov/Encounter/d5e41442-5a22-4bee-b781-ebba280ef67f",
    "resource": {
      "resourceType": "Encounter",
      "id": "d5e41442-5a22-4bee-b781-ebba280ef67f",
      "meta": {
        "profile": [ "http://hl7.org/fhir/us/qicore/StructureDefinition/qicore-encounter" ]
      },
      "status": "finished",
      "class": {
        "system": "http://terminology.hl7.org/CodeSystem/v3-ActCode",
        "code": "AMB",
        "display": "ambulatory",
        "userSelected": true
      },
      "type": [ {
        "coding": [ {
          "system": "http://snomed.info/sct",
          "code": "185463005"
        } ]
      } ],
      "subject": {
        "reference": "Patient/f24d0ae4-0daf-4f7e-85c8-679360f29219"
      },
      "period": {
        "start": "2026-10-24T08:00:00.000+00:00",
        "end": "2026-10-24T08:15:00.000+00:00"
      }
    },
    "request": {
      "method": "PUT",
      "url": "Encounter/d5e41442-5a22-4bee-b781-ebba280ef67f"
    }
  }, {
    "fullUrl": "https://madie.cms.gov/Observation/9e7a4c50-77e4-4ece-acdb-94b56bf4c9c1",
    "resource": {
      "resourceType": "Observation",
      "id": "9e7a4c50-77e4-4ece-acdb-94b56bf4c9c1",
      "meta": {
        "profile": [ "http://hl7.org/fhir/us/qicore/StructureDefinition/qicore-observation-lab" ]
      },
      "status": "final",
      "category": [ {
        "coding": [ {
          "system": "http://terminology.hl7.org/CodeSystem/observation-category",
          "code": "laboratory",
          "display": "Laboratory",
          "userSelected": true
        } ]
      } ],
      "code": {
        "coding": [ {
          "system": "http://loinc.org",
          "code": "10901-7"
        } ]
      },
      "subject": {
        "reference": "Patient/f24d0ae4-0daf-4f7e-85c8-679360f29219"
      },
      "effectiveDateTime": "2018-07-20T08:00:00.000+00:00",
      "valueBoolean": true
    },
    "request": {
      "method": "PUT",
      "url": "Observation/9e7a4c50-77e4-4ece-acdb-94b56bf4c9c1"
    }
  }, {
    "fullUrl": "https://madie.cms.gov/Observation/9f139cc9-5cdf-4cc5-9a85-6ea17ecf86be",
    "resource": {
      "resourceType": "Observation",
      "id": "9f139cc9-5cdf-4cc5-9a85-6ea17ecf86be",
      "meta": {
        "profile": [ "http://hl7.org/fhir/us/qicore/StructureDefinition/qicore-observation-lab" ]
      },
      "status": "final",
      "category": [ {
        "coding": [ {
          "system": "http://terminology.hl7.org/CodeSystem/observation-category",
          "code": "laboratory",
          "display": "Laboratory",
          "userSelected": true
        } ]
      } ],
      "code": {
        "coding": [ {
          "system": "http://loinc.org",
          "code": "75622-1"
        } ]
      },
      "subject": {
        "reference": "Patient/f24d0ae4-0daf-4f7e-85c8-679360f29219"
      },
      "issued": "2026-10-24T08:00:00.000+00:00",
      "valueBoolean": true
    },
    "request": {
      "method": "PUT",
      "url": "Observation/9f139cc9-5cdf-4cc5-9a85-6ea17ecf86be"
    }
  }, {
    "fullUrl": "https://madie.cms.gov/MeasureReport/30e8206c-0c28-48ee-898c-8b6f8632aff2",
    "resource": {
      "resourceType": "MeasureReport",
      "id": "30e8206c-0c28-48ee-898c-8b6f8632aff2",
      "meta": {
        "profile": [ "http://hl7.org/fhir/us/cqfmeasures/StructureDefinition/test-case-cqfm" ]
      },
      "contained": [ {
        "resourceType": "Parameters",
        "id": "19ada8bc-ef64-4503-a9f6-677c0737e386-parameters",
        "parameter": [ {
          "name": "subject",
          "valueString": "f24d0ae4-0daf-4f7e-85c8-679360f29219"
        } ]
      } ],
      "extension": [ {
        "url": "http://hl7.org/fhir/StructureDefinition/cqf-inputParameters",
        "valueReference": {
          "reference": "#19ada8bc-ef64-4503-a9f6-677c0737e386-parameters"
        }
      }, {
        "url": "http://hl7.org/fhir/us/cqfmeasures/StructureDefinition/cqfm-testCaseDescription",
        "valueMarkdown": "Patient 20 at start of MP, qual encounter during MP, two lab test, one under 15 before MP, one at 20 during MP with authorDatetime."
      } ],
      "modifierExtension": [ {
        "url": "http://hl7.org/fhir/us/cqfmeasures/StructureDefinition/cqfm-isTestCase",
        "valueBoolean": true
      } ],
      "status": "complete",
      "type": "individual",
      "measure": "https://madie.cms.gov/Measure/CMS349FHIRHIVScreening",
      "period": {
        "start": "2026-01-01",
        "end": "2026-12-31"
      },
      "group": [ {
        "id": "Group_1",
        "population": [ {
          "id": "InitialPopulation_1",
          "code": {
            "coding": [ {
              "system": "http://terminology.hl7.org/CodeSystem/measure-population",
              "code": "initial-population",
              "display": "Initial Population"
            } ]
          },
          "count": 1
        }, {
          "id": "Denominator_1",
          "code": {
            "coding": [ {
              "system": "http://terminology.hl7.org/CodeSystem/measure-population",
              "code": "denominator",
              "display": "Denominator"
            } ]
          },
          "count": 1
        }, {
          "id": "DenominatorExclusion_1",
          "code": {
            "coding": [ {
              "system": "http://terminology.hl7.org/CodeSystem/measure-population",
              "code": "denominator-exclusion",
              "display": "Denominator Exclusion"
            } ]
          },
          "count": 0
        }, {
          "id": "Numerator_1",
          "code": {
            "coding": [ {
              "system": "http://terminology.hl7.org/CodeSystem/measure-population",
              "code": "numerator",
              "display": "Numerator"
            } ]
          },
          "count": 0
        }, {
          "id": "DenominatorException_1",
          "code": {
            "coding": [ {
              "system": "http://terminology.hl7.org/CodeSystem/measure-population",
              "code": "denominator-exception",
              "display": "Denominator Exception"
            } ]
          },
          "count": 0
        } ],
        "measureScore": {
          "value": 1.0
        }
      } ],
      "evaluatedResource": [ {
        "reference": "Patient/f24d0ae4-0daf-4f7e-85c8-679360f29219"
      }, {
        "reference": "Encounter/d5e41442-5a22-4bee-b781-ebba280ef67f"
      }, {
        "reference": "Observation/9e7a4c50-77e4-4ece-acdb-94b56bf4c9c1"
      }, {
        "reference": "Observation/9f139cc9-5cdf-4cc5-9a85-6ea17ecf86be"
      } ]
    },
    "request": {
      "method": "PUT",
      "url": "MeasureReport/30e8206c-0c28-48ee-898c-8b6f8632aff2"
    }
  } ]
}