{
  "resourceType": "Bundle",
  "id": "62df26920056b6e23ec675a3",
  "type": "transaction",
  "entry": [ {
    "fullUrl": "https://madie.cms.gov/Patient/ddfb765a-a3fb-467f-a9d9-ac6faf4cea9a",
    "resource": {
      "resourceType": "Patient",
      "id": "ddfb765a-a3fb-467f-a9d9-ac6faf4cea9a",
      "meta": {
        "profile": [ "http://hl7.org/fhir/us/qicore/StructureDefinition/qicore-patient" ]
      },
      "extension": [ {
        "url": "http://hl7.org/fhir/us/core/StructureDefinition/us-core-race",
        "extension": [ {
          "url": "ombCategory",
          "valueCoding": {
            "system": "urn:oid:2.16.840.1.113883.6.238",
            "code": "2106-3",
            "display": "White",
            "userSelected": true
          }
        }, {
          "url": "text",
          "valueString": "White"
        } ]
      }, {
        "url": "http://hl7.org/fhir/us/core/StructureDefinition/us-core-ethnicity",
        "extension": [ {
          "url": "ombCategory",
          "valueCoding": {
            "system": "urn:oid:2.16.840.1.113883.6.238",
            "code": "2186-5",
            "display": "Not Hispanic or Latino",
            "userSelected": true
          }
        }, {
          "url": "text",
          "valueString": "Not Hispanic or Latino"
        } ]
      } ],
      "identifier": [ {
        "type": {
          "coding": [ {
            "system": "http://terminology.hl7.org/CodeSystem/v2-0203",
            "code": "MR"
          } ]
        },
        "system": "https://bonnie-fhir.healthit.gov/",
        "value": "62df26920056b6e23ec675a3"
      } ],
      "name": [ {
        "family": "NUMERPass",
        "given": [ "LowBMIAndInterventionPerformedCondition" ]
      } ],
      "gender": "unknown",
      "birthDate": "1957-11-07"
    },
    "request": {
      "method": "PUT",
      "url": "Patient/ddfb765a-a3fb-467f-a9d9-ac6faf4cea9a"
    }
  }, {
    "fullUrl": "https://madie.cms.gov/Encounter/b38fe589-d69c-4582-8f16-a5ff0ef988e7",
    "resource": {
      "resourceType": "Encounter",
      "id": "b38fe589-d69c-4582-8f16-a5ff0ef988e7",
      "meta": {
        "profile": [ "http://hl7.org/fhir/us/qicore/StructureDefinition/qicore-encounter" ]
      },
      "status": "finished",
      "class": {
        "system": "http://terminology.hl7.org/CodeSystem/v3-ActCode",
        "code": "AMB",
        "display": "ambulatory"
      },
      "type": [ {
        "coding": [ {
          "system": "http://snomed.info/sct",
          "version": "2022-03",
          "code": "10197000",
          "display": "Psychiatric interview and evaluation (procedure)",
          "userSelected": true
        } ]
      } ],
      "subject": {
        "reference": "Patient/ddfb765a-a3fb-467f-a9d9-ac6faf4cea9a"
      },
      "period": {
        "start": "2026-01-01T00:00:00.000+00:00",
        "end": "2026-01-01T00:30:00.000+00:00"
      }
    },
    "request": {
      "method": "PUT",
      "url": "Encounter/b38fe589-d69c-4582-8f16-a5ff0ef988e7"
    }
  }, {
    "fullUrl": "https://madie.cms.gov/Observation/5f9bf33a-c834-4c11-8cc8-8fed29ec4643",
    "resource": {
      "resourceType": "Observation",
      "id": "5f9bf33a-c834-4c11-8cc8-8fed29ec4643",
      "meta": {
        "profile": [ "http://hl7.org/fhir/us/core/StructureDefinition/us-core-bmi" ]
      },
      "status": "final",
      "category": [ {
        "coding": [ {
          "system": "http://terminology.hl7.org/CodeSystem/observation-category",
          "code": "vital-signs",
          "display": "Vital Signs"
        } ]
      } ],
      "code": {
        "coding": [ {
          "system": "http://loinc.org",
          "code": "39156-5",
          "display": "Body mass index (BMI) [Ratio]",
          "userSelected": true
        } ]
      },
      "subject": {
        "reference": "Patient/ddfb765a-a3fb-467f-a9d9-ac6faf4cea9a"
      },
      "effectiveDateTime": "2026-01-01T00:30:00.000+00:00",
      "valueQuantity": {
        "value": 18,
        "unit": "kg/m2",
        "system": "http://unitsofmeasure.org",
        "code": "kg/m2"
      }
    },
    "request": {
      "method": "PUT",
      "url": "Observation/5f9bf33a-c834-4c11-8cc8-8fed29ec4643"
    }
  }, {
    "fullUrl": "https://madie.cms.gov/Procedure/f53f01af-bd24-4e2c-9058-8dcf92919582",
    "resource": {
      "resourceType": "Procedure",
      "id": "f53f01af-bd24-4e2c-9058-8dcf92919582",
      "meta": {
        "profile": [ "http://hl7.org/fhir/us/qicore/StructureDefinition/qicore-procedure" ]
      },
      "extension": [ {
        "url": "http://hl7.org/fhir/us/qicore/StructureDefinition/qicore-recorded",
        "valueDateTime": "2026-01-01T00:30:00.000+00:00"
      } ],
      "status": "completed",
      "code": {
        "coding": [ {
          "system": "http://snomed.info/sct",
          "version": "2022-03",
          "code": "182922004",
          "display": "Dietary regime (regime/therapy)",
          "userSelected": true
        } ]
      },
      "subject": {
        "reference": "Patient/ddfb765a-a3fb-467f-a9d9-ac6faf4cea9a"
      },
      "performedDateTime": "2026-01-01T00:30:00.000+00:00"
    },
    "request": {
      "method": "PUT",
      "url": "Procedure/f53f01af-bd24-4e2c-9058-8dcf92919582"
    }
  }, {
    "fullUrl": "https://madie.cms.gov/Condition/81e1c09f-ad3a-40e9-9900-777bbff68c00",
    "resource": {
      "resourceType": "Condition",
      "id": "81e1c09f-ad3a-40e9-9900-777bbff68c00",
      "meta": {
        "profile": [ "http://hl7.org/fhir/us/qicore/StructureDefinition/qicore-condition-problems-health-concerns" ]
      },
      "clinicalStatus": {
        "coding": [ {
          "system": "http://terminology.hl7.org/CodeSystem/condition-clinical",
          "code": "inactive",
          "display": "inactive",
          "userSelected": true
        } ]
      },
      "category": [ {
        "coding": [ {
          "system": "http://hl7.org/fhir/us/core/CodeSystem/condition-category",
          "code": "health-concern",
          "display": "Health Concern"
        }, {
          "system": "http://snomed.info/sct",
          "code": "439401001",
          "display": "Diagnosis"
        } ]
      } ],
      "code": {
        "coding": [ {
          "system": "http://snomed.info/sct",
          "version": "2022-03",
          "code": "248342006",
          "display": "Underweight (finding)",
          "userSelected": true
        } ]
      },
      "subject": {
        "reference": "Patient/ddfb765a-a3fb-467f-a9d9-ac6faf4cea9a"
      },
      "onsetDateTime": "2024-01-01T00:30:00.000+00:00",
      "abatementDateTime": "2025-12-31T00:30:00.000+00:00"
    },
    "request": {
      "method": "PUT",
      "url": "Condition/81e1c09f-ad3a-40e9-9900-777bbff68c00"
    }
  }, {
    "fullUrl": "https://madie.cms.gov/Coverage/b2e32d5d-ec4f-4a1a-9b2a-aa45b1af307a",
    "resource": {
      "resourceType": "Coverage",
      "id": "b2e32d5d-ec4f-4a1a-9b2a-aa45b1af307a",
      "meta": {
        "profile": [ "http://hl7.org/fhir/us/qicore/StructureDefinition/qicore-coverage" ]
      },
      "status": "active",
      "beneficiary": {
        "reference": "Patient/ddfb765a-a3fb-467f-a9d9-ac6faf4cea9a"
      },
      "payor": [ {
        "reference": "Organization/0bc67dff-f6ca-4d49-bdc1-8db8f8ecb7cd"
      } ]
    },
    "request": {
      "method": "PUT",
      "url": "Coverage/b2e32d5d-ec4f-4a1a-9b2a-aa45b1af307a"
    }
  }, {
    "fullUrl": "https://madie.cms.gov/Organization/0bc67dff-f6ca-4d49-bdc1-8db8f8ecb7cd",
    "resource": {
      "resourceType": "Organization",
      "id": "0bc67dff-f6ca-4d49-bdc1-8db8f8ecb7cd",
      "meta": {
        "profile": [ "http://hl7.org/fhir/us/qicore/StructureDefinition/qicore-organization" ]
      },
      "identifier": [ {
        "use": "temp",
        "system": "urn:oid:2.16.840.1.113883.4.4",
        "value": "21-3259825"
      } ],
      "active": true,
      "type": [ {
        "coding": [ {
          "system": "http://terminology.hl7.org/CodeSystem/organization-type",
          "code": "pay",
          "display": "Payer"
        } ]
      } ],
      "name": "Blue Cross Blue Shield of Texas",
      "telecom": [ {
        "system": "phone",
        "value": "(+1) 972-766-6900"
      } ],
      "address": [ {
        "use": "billing",
        "type": "postal",
        "line": [ "P.O. Box 660044" ],
        "city": "Dallas",
        "state": "TX",
        "postalCode": "75266-0044",
        "country": "USA"
      } ]
    },
    "request": {
      "method": "PUT",
      "url": "Organization/0bc67dff-f6ca-4d49-bdc1-8db8f8ecb7cd"
    }
  }, {
    "fullUrl": "https://madie.cms.gov/MeasureReport/075e46b5-7f11-49dd-9353-8aa24aef51e9",
    "resource": {
      "resourceType": "MeasureReport",
      "id": "075e46b5-7f11-49dd-9353-8aa24aef51e9",
      "meta": {
        "profile": [ "http://hl7.org/fhir/us/cqfmeasures/StructureDefinition/test-case-cqfm" ]
      },
      "contained": [ {
        "resourceType": "Parameters",
        "id": "8133bdd9-ed9a-4bfb-98ba-def264123478-parameters",
        "parameter": [ {
          "name": "subject",
          "valueString": "ddfb765a-a3fb-467f-a9d9-ac6faf4cea9a"
        } ]
      } ],
      "extension": [ {
        "url": "http://hl7.org/fhir/StructureDefinition/cqf-inputParameters",
        "valueReference": {
          "reference": "#8133bdd9-ed9a-4bfb-98ba-def264123478-parameters"
        }
      }, {
        "url": "http://hl7.org/fhir/us/cqfmeasures/StructureDefinition/cqfm-testCaseDescription",
        "valueMarkdown": "Enc first min of MP, BMI 18, intervention performed for below normal BMI but patient Underweight dx ended last day of prior year MP."
      } ],
      "modifierExtension": [ {
        "url": "http://hl7.org/fhir/us/cqfmeasures/StructureDefinition/cqfm-isTestCase",
        "valueBoolean": true
      } ],
      "status": "complete",
      "type": "individual",
      "measure": "https://madie.cms.gov/Measure/CMS69FHIRPCSBMIScreenAndFollowUp",
      "period": {
        "start": "2026-01-01",
        "end": "2026-12-31"
      },
      "group": [ {
        "id": "Group_1",
        "population": [ {
          "id": "InitialPopulation_1",
          "code": {
            "coding": [ {
              "system": "http://terminology.hl7.org/CodeSystem/measure-population",
              "code": "initial-population",
              "display": "Initial Population"
            } ]
          },
          "count": 1
        }, {
          "id": "Denominator_1",
          "code": {
            "coding": [ {
              "system": "http://terminology.hl7.org/CodeSystem/measure-population",
              "code": "denominator",
              "display": "Denominator"
            } ]
          },
          "count": 1
        }, {
          "id": "DenominatorExclusion_1",
          "code": {
            "coding": [ {
              "system": "http://terminology.hl7.org/CodeSystem/measure-population",
              "code": "denominator-exclusion",
              "display": "Denominator Exclusion"
            } ]
          },
          "count": 0
        }, {
          "id": "Numerator_1",
          "code": {
            "coding": [ {
              "system": "http://terminology.hl7.org/CodeSystem/measure-population",
              "code": "numerator",
              "display": "Numerator"
            } ]
          },
          "count": 0
        }, {
          "id": "DenominatorException_1",
          "code": {
            "coding": [ {
              "system": "http://terminology.hl7.org/CodeSystem/measure-population",
              "code": "denominator-exception",
              "display": "Denominator Exception"
            } ]
          },
          "count": 0
        } ],
        "measureScore": {
          "value": 1.0
        }
      } ],
      "evaluatedResource": [ {
        "reference": "Patient/ddfb765a-a3fb-467f-a9d9-ac6faf4cea9a"
      }, {
        "reference": "Encounter/b38fe589-d69c-4582-8f16-a5ff0ef988e7"
      }, {
        "reference": "Observation/5f9bf33a-c834-4c11-8cc8-8fed29ec4643"
      }, {
        "reference": "Procedure/f53f01af-bd24-4e2c-9058-8dcf92919582"
      }, {
        "reference": "Condition/81e1c09f-ad3a-40e9-9900-777bbff68c00"
      }, {
        "reference": "Coverage/b2e32d5d-ec4f-4a1a-9b2a-aa45b1af307a"
      }, {
        "reference": "Organization/0bc67dff-f6ca-4d49-bdc1-8db8f8ecb7cd"
      } ]
    },
    "request": {
      "method": "PUT",
      "url": "MeasureReport/075e46b5-7f11-49dd-9353-8aa24aef51e9"
    }
  } ]
}