{
  "resourceType": "Bundle",
  "id": "62aa5cf9c4be4c506d4a5344",
  "type": "transaction",
  "entry": [ {
    "fullUrl": "https://madie.cms.gov/Patient/09e4ff5a-fe3b-4c89-a36e-68f64c7e489c",
    "resource": {
      "resourceType": "Patient",
      "id": "09e4ff5a-fe3b-4c89-a36e-68f64c7e489c",
      "meta": {
        "profile": [ "http://hl7.org/fhir/us/qicore/StructureDefinition/qicore-patient" ]
      },
      "extension": [ {
        "url": "http://hl7.org/fhir/us/core/StructureDefinition/us-core-race",
        "extension": [ {
          "url": "ombCategory",
          "valueCoding": {
            "system": "urn:oid:2.16.840.1.113883.6.238",
            "code": "2028-9",
            "display": "Asian",
            "userSelected": true
          }
        }, {
          "url": "text",
          "valueString": "Asian"
        } ]
      }, {
        "url": "http://hl7.org/fhir/us/core/StructureDefinition/us-core-ethnicity",
        "extension": [ {
          "url": "ombCategory",
          "valueCoding": {
            "system": "urn:oid:2.16.840.1.113883.6.238",
            "code": "2186-5",
            "display": "Not Hispanic or Latino",
            "userSelected": true
          }
        }, {
          "url": "text",
          "valueString": "Not Hispanic or Latino"
        } ]
      } ],
      "identifier": [ {
        "type": {
          "coding": [ {
            "system": "http://terminology.hl7.org/CodeSystem/v2-0203",
            "code": "MR"
          } ]
        },
        "system": "https://bonnie-fhir.healthit.gov/",
        "value": "62aa5cf9c4be4c506d4a5344"
      } ],
      "name": [ {
        "family": "DENEXPass",
        "given": [ "PalliativeCareProcedure" ]
      } ],
      "gender": "female",
      "birthDate": "2001-01-01"
    },
    "request": {
      "method": "PUT",
      "url": "Patient/09e4ff5a-fe3b-4c89-a36e-68f64c7e489c"
    }
  }, {
    "fullUrl": "https://madie.cms.gov/Encounter/71ec7141-4f5f-4819-8ceb-6b42c8b1affa",
    "resource": {
      "resourceType": "Encounter",
      "id": "71ec7141-4f5f-4819-8ceb-6b42c8b1affa",
      "meta": {
        "profile": [ "http://hl7.org/fhir/us/qicore/StructureDefinition/qicore-encounter" ]
      },
      "status": "finished",
      "class": {
        "system": "http://terminology.hl7.org/CodeSystem/v3-ActCode",
        "code": "AMB",
        "display": "ambulatory"
      },
      "type": [ {
        "coding": [ {
          "system": "http://snomed.info/sct",
          "version": "2022-03",
          "code": "10197000",
          "display": "Psychiatric interview and evaluation (procedure)",
          "userSelected": true
        } ]
      } ],
      "subject": {
        "reference": "Patient/09e4ff5a-fe3b-4c89-a36e-68f64c7e489c"
      },
      "period": {
        "start": "2026-01-01T08:00:00.000+00:00",
        "end": "2026-01-01T08:15:00.000+00:00"
      }
    },
    "request": {
      "method": "PUT",
      "url": "Encounter/71ec7141-4f5f-4819-8ceb-6b42c8b1affa"
    }
  }, {
    "fullUrl": "https://madie.cms.gov/Procedure/2c6b6a05-7744-4bb5-b366-07d207d9142e",
    "resource": {
      "resourceType": "Procedure",
      "id": "2c6b6a05-7744-4bb5-b366-07d207d9142e",
      "meta": {
        "profile": [ "http://hl7.org/fhir/us/qicore/StructureDefinition/qicore-procedure" ]
      },
      "extension": [ {
        "url": "http://hl7.org/fhir/us/qicore/StructureDefinition/qicore-recorded",
        "valueDateTime": "2026-01-01T08:05:00.000+00:00"
      } ],
      "status": "completed",
      "code": {
        "coding": [ {
          "system": "http://snomed.info/sct",
          "version": "2022-03",
          "code": "103735009",
          "display": "Palliative care (regime/therapy)",
          "userSelected": true
        } ]
      },
      "subject": {
        "reference": "Patient/09e4ff5a-fe3b-4c89-a36e-68f64c7e489c"
      },
      "performedDateTime": "2026-01-01T08:00:00.000+00:00"
    },
    "request": {
      "method": "PUT",
      "url": "Procedure/2c6b6a05-7744-4bb5-b366-07d207d9142e"
    }
  }, {
    "fullUrl": "https://madie.cms.gov/Coverage/4e5a9bc9-f6ef-4ec7-8170-ffe6667e528f",
    "resource": {
      "resourceType": "Coverage",
      "id": "4e5a9bc9-f6ef-4ec7-8170-ffe6667e528f",
      "meta": {
        "profile": [ "http://hl7.org/fhir/us/qicore/StructureDefinition/qicore-coverage" ]
      },
      "status": "active",
      "beneficiary": {
        "reference": "Patient/09e4ff5a-fe3b-4c89-a36e-68f64c7e489c"
      },
      "payor": [ {
        "reference": "Organization/c587939f-53c4-4152-9a81-76ab0760ceb8"
      } ]
    },
    "request": {
      "method": "PUT",
      "url": "Coverage/4e5a9bc9-f6ef-4ec7-8170-ffe6667e528f"
    }
  }, {
    "fullUrl": "https://madie.cms.gov/Organization/c587939f-53c4-4152-9a81-76ab0760ceb8",
    "resource": {
      "resourceType": "Organization",
      "id": "c587939f-53c4-4152-9a81-76ab0760ceb8",
      "meta": {
        "profile": [ "http://hl7.org/fhir/us/qicore/StructureDefinition/qicore-organization" ]
      },
      "identifier": [ {
        "use": "temp",
        "system": "urn:oid:2.16.840.1.113883.4.4",
        "value": "21-3259825"
      } ],
      "active": true,
      "type": [ {
        "coding": [ {
          "system": "http://terminology.hl7.org/CodeSystem/organization-type",
          "code": "pay",
          "display": "Payer"
        } ]
      } ],
      "name": "Blue Cross Blue Shield of Texas",
      "telecom": [ {
        "system": "phone",
        "value": "(+1) 972-766-6900"
      } ],
      "address": [ {
        "use": "billing",
        "type": "postal",
        "line": [ "P.O. Box 660044" ],
        "city": "Dallas",
        "state": "TX",
        "postalCode": "75266-0044",
        "country": "USA"
      } ]
    },
    "request": {
      "method": "PUT",
      "url": "Organization/c587939f-53c4-4152-9a81-76ab0760ceb8"
    }
  }, {
    "fullUrl": "https://madie.cms.gov/Practitioner/5b3aa1ba-8abb-434d-b81a-81519564512f",
    "resource": {
      "resourceType": "Practitioner",
      "id": "5b3aa1ba-8abb-434d-b81a-81519564512f",
      "meta": {
        "profile": [ "http://hl7.org/fhir/us/qicore/StructureDefinition/qicore-practitioner" ]
      },
      "identifier": [ {
        "system": "http://hl7.org/fhir/sid/us-npi",
        "value": "123456"
      } ],
      "name": [ {
        "family": "Evil",
        "prefix": [ "Dr" ]
      } ]
    },
    "request": {
      "method": "PUT",
      "url": "Practitioner/5b3aa1ba-8abb-434d-b81a-81519564512f"
    }
  }, {
    "fullUrl": "https://madie.cms.gov/MeasureReport/2b228bc5-1b64-40e0-bcf9-dac316ea5c37",
    "resource": {
      "resourceType": "MeasureReport",
      "id": "2b228bc5-1b64-40e0-bcf9-dac316ea5c37",
      "meta": {
        "profile": [ "http://hl7.org/fhir/us/cqfmeasures/StructureDefinition/test-case-cqfm" ]
      },
      "contained": [ {
        "resourceType": "Parameters",
        "id": "e8f01d48-d334-42cb-a567-c10af82ce454-parameters",
        "parameter": [ {
          "name": "subject",
          "valueString": "09e4ff5a-fe3b-4c89-a36e-68f64c7e489c"
        } ]
      } ],
      "extension": [ {
        "url": "http://hl7.org/fhir/StructureDefinition/cqf-inputParameters",
        "valueReference": {
          "reference": "#e8f01d48-d334-42cb-a567-c10af82ce454-parameters"
        }
      }, {
        "url": "http://hl7.org/fhir/us/cqfmeasures/StructureDefinition/cqfm-testCaseDescription",
        "valueMarkdown": "Enc first day of MP patient has palliative care"
      } ],
      "modifierExtension": [ {
        "url": "http://hl7.org/fhir/us/cqfmeasures/StructureDefinition/cqfm-isTestCase",
        "valueBoolean": true
      } ],
      "status": "complete",
      "type": "individual",
      "measure": "https://madie.cms.gov/Measure/CMS69FHIRPCSBMIScreenAndFollowUp",
      "period": {
        "start": "2026-01-01",
        "end": "2026-12-31"
      },
      "group": [ {
        "id": "Group_1",
        "population": [ {
          "id": "InitialPopulation_1",
          "code": {
            "coding": [ {
              "system": "http://terminology.hl7.org/CodeSystem/measure-population",
              "code": "initial-population",
              "display": "Initial Population"
            } ]
          },
          "count": 1
        }, {
          "id": "Denominator_1",
          "code": {
            "coding": [ {
              "system": "http://terminology.hl7.org/CodeSystem/measure-population",
              "code": "denominator",
              "display": "Denominator"
            } ]
          },
          "count": 1
        }, {
          "id": "DenominatorExclusion_1",
          "code": {
            "coding": [ {
              "system": "http://terminology.hl7.org/CodeSystem/measure-population",
              "code": "denominator-exclusion",
              "display": "Denominator Exclusion"
            } ]
          },
          "count": 1
        }, {
          "id": "Numerator_1",
          "code": {
            "coding": [ {
              "system": "http://terminology.hl7.org/CodeSystem/measure-population",
              "code": "numerator",
              "display": "Numerator"
            } ]
          },
          "count": 0
        }, {
          "id": "DenominatorException_1",
          "code": {
            "coding": [ {
              "system": "http://terminology.hl7.org/CodeSystem/measure-population",
              "code": "denominator-exception",
              "display": "Denominator Exception"
            } ]
          },
          "count": 0
        } ],
        "measureScore": {
          "value": 1.0
        }
      } ],
      "evaluatedResource": [ {
        "reference": "Patient/09e4ff5a-fe3b-4c89-a36e-68f64c7e489c"
      }, {
        "reference": "Encounter/71ec7141-4f5f-4819-8ceb-6b42c8b1affa"
      }, {
        "reference": "Procedure/2c6b6a05-7744-4bb5-b366-07d207d9142e"
      }, {
        "reference": "Coverage/4e5a9bc9-f6ef-4ec7-8170-ffe6667e528f"
      }, {
        "reference": "Organization/c587939f-53c4-4152-9a81-76ab0760ceb8"
      }, {
        "reference": "Practitioner/5b3aa1ba-8abb-434d-b81a-81519564512f"
      } ]
    },
    "request": {
      "method": "PUT",
      "url": "MeasureReport/2b228bc5-1b64-40e0-bcf9-dac316ea5c37"
    }
  } ]
}