{
  "resourceType": "Bundle",
  "type": "transaction",
  "entry": [
    {
      "fullUrl": "https://madie.cms.gov/Patient/86a542ea-a8de-49e8-be6d-6ca395a571fc",
      "resource": {
        "resourceType": "Patient",
        "id": "86a542ea-a8de-49e8-be6d-6ca395a571fc",
        "meta": {
          "profile": [
            "http://hl7.org/fhir/us/qicore/StructureDefinition/qicore-patient"
          ]
        },
        "extension": [
          {
            "url": "http://hl7.org/fhir/us/core/StructureDefinition/us-core-race",
            "extension": [
              {
                "url": "ombCategory",
                "valueCoding": {
                  "system": "urn:oid:2.16.840.1.113883.6.238",
                  "code": "2106-3",
                  "display": "White",
                  "userSelected": true
                }
              },
              {
                "url": "text",
                "valueString": "White"
              }
            ]
          },
          {
            "url": "http://hl7.org/fhir/us/core/StructureDefinition/us-core-ethnicity",
            "extension": [
              {
                "url": "ombCategory",
                "valueCoding": {
                  "system": "urn:oid:2.16.840.1.113883.6.238",
                  "code": "2186-5",
                  "display": "Not Hispanic or Latino",
                  "userSelected": true
                }
              },
              {
                "url": "text",
                "valueString": "Not Hispanic or Latino"
              }
            ]
          }
        ],
        "identifier": [
          {
            "type": {
              "coding": [
                {
                  "system": "http://terminology.hl7.org/CodeSystem/v2-0203",
                  "code": "MR"
                }
              ]
            },
            "system": "https://bonnie-fhir.healthit.gov/",
            "value": "62fbef57bf5132f90ee35d41"
          }
        ],
        "name": [
          {
            "family": "DENEXPass",
            "given": ["HospiceProcedure"]
          }
        ],
        "gender": "unknown",
        "birthDate": "1957-11-07"
      },
      "request": {
        "method": "PUT",
        "url": "Patient/86a542ea-a8de-49e8-be6d-6ca395a571fc"
      }
    },
    {
      "fullUrl": "https://madie.cms.gov/Encounter/347d1db3-417b-48c9-b52c-cf67c0557cbd",
      "resource": {
        "resourceType": "Encounter",
        "id": "347d1db3-417b-48c9-b52c-cf67c0557cbd",
        "meta": {
          "profile": [
            "http://hl7.org/fhir/us/qicore/StructureDefinition/qicore-encounter"
          ]
        },
        "status": "finished",
        "class": {
          "system": "http://terminology.hl7.org/CodeSystem/v3-ActCode",
          "code": "AMB",
          "display": "ambulatory"
        },
        "type": [
          {
            "coding": [
              {
                "system": "http://snomed.info/sct",
                "version": "2022-03",
                "code": "10197000",
                "display": "Psychiatric interview and evaluation (procedure)",
                "userSelected": true
              }
            ]
          }
        ],
        "subject": {
          "reference": "Patient/86a542ea-a8de-49e8-be6d-6ca395a571fc"
        },
        "period": {
          "start": "2026-12-31T23:30:00.000+00:00",
          "end": "2026-12-31T23:59:00.000+00:00"
        }
      },
      "request": {
        "method": "PUT",
        "url": "Encounter/347d1db3-417b-48c9-b52c-cf67c0557cbd"
      }
    },
    {
      "fullUrl": "https://madie.cms.gov/Procedure/ab4089e4-0f33-4e14-86fd-ed03e425751f",
      "resource": {
        "resourceType": "Procedure",
        "id": "ab4089e4-0f33-4e14-86fd-ed03e425751f",
        "meta": {
          "profile": [
            "http://hl7.org/fhir/us/qicore/StructureDefinition/qicore-procedure"
          ]
        },
        "extension": [
          {
            "url": "http://hl7.org/fhir/us/qicore/StructureDefinition/qicore-recorded",
            "valueDateTime": "2026-12-31T23:59:00.000+00:00"
          }
        ],
        "status": "completed",
        "code": {
          "coding": [
            {
              "system": "http://snomed.info/sct",
              "version": "2022-03",
              "code": "385763009",
              "display": "Hospice care (regime/therapy)",
              "userSelected": true
            }
          ]
        },
        "subject": {
          "reference": "Patient/86a542ea-a8de-49e8-be6d-6ca395a571fc"
        },
        "performedDateTime": "2026-12-31T23:59:00.000+00:00"
      },
      "request": {
        "method": "PUT",
        "url": "Procedure/ab4089e4-0f33-4e14-86fd-ed03e425751f"
      }
    },
    {
      "fullUrl": "https://madie.cms.gov/Coverage/ff57dce1-b240-44aa-95b6-0c91994783db",
      "resource": {
        "resourceType": "Coverage",
        "id": "ff57dce1-b240-44aa-95b6-0c91994783db",
        "meta": {
          "profile": [
            "http://hl7.org/fhir/us/qicore/StructureDefinition/qicore-coverage"
          ]
        },
        "status": "active",
        "beneficiary": {
          "reference": "Patient/86a542ea-a8de-49e8-be6d-6ca395a571fc"
        },
        "payor": [
          {
            "reference": "Organization/14398b8b-dbf2-4bb4-b036-ca214c8c2aeb"
          }
        ]
      },
      "request": {
        "method": "PUT",
        "url": "Coverage/ff57dce1-b240-44aa-95b6-0c91994783db"
      }
    },
    {
      "fullUrl": "https://madie.cms.gov/Organization/14398b8b-dbf2-4bb4-b036-ca214c8c2aeb",
      "resource": {
        "resourceType": "Organization",
        "id": "14398b8b-dbf2-4bb4-b036-ca214c8c2aeb",
        "meta": {
          "profile": [
            "http://hl7.org/fhir/us/qicore/StructureDefinition/qicore-organization"
          ]
        },
        "identifier": [
          {
            "use": "temp",
            "system": "urn:oid:2.16.840.1.113883.4.4",
            "value": "21-3259825"
          }
        ],
        "active": true,
        "type": [
          {
            "coding": [
              {
                "system": "http://terminology.hl7.org/CodeSystem/organization-type",
                "code": "pay",
                "display": "Payer"
              }
            ]
          }
        ],
        "name": "Blue Cross Blue Shield of Texas",
        "telecom": [
          {
            "system": "phone",
            "value": "(+1) 972-766-6900"
          }
        ],
        "address": [
          {
            "use": "billing",
            "type": "postal",
            "line": ["P.O. Box 660044"],
            "city": "Dallas",
            "state": "TX",
            "postalCode": "75266-0044",
            "country": "USA"
          }
        ]
      },
      "request": {
        "method": "PUT",
        "url": "Organization/14398b8b-dbf2-4bb4-b036-ca214c8c2aeb"
      }
    },
    {
      "fullUrl": "https://madie.cms.gov/MeasureReport/53987676-4055-4dbd-9230-dfce95e501b8",
      "resource": {
        "resourceType": "MeasureReport",
        "id": "53987676-4055-4dbd-9230-dfce95e501b8",
        "meta": {
          "profile": [
            "http://hl7.org/fhir/us/cqfmeasures/StructureDefinition/test-case-cqfm"
          ]
        },
        "contained": [
          {
            "resourceType": "Parameters",
            "id": "84cc9582-8365-42ca-a551-b995cf02dd01-parameters",
            "parameter": [
              {
                "name": "subject",
                "valueString": "86a542ea-a8de-49e8-be6d-6ca395a571fc"
              }
            ]
          }
        ],
        "extension": [
          {
            "url": "http://hl7.org/fhir/StructureDefinition/cqf-inputParameters",
            "valueReference": {
              "reference": "#84cc9582-8365-42ca-a551-b995cf02dd01-parameters"
            }
          },
          {
            "url": "http://hl7.org/fhir/us/cqfmeasures/StructureDefinition/cqfm-testCaseDescription",
            "valueMarkdown": "Base Case 097cbc78 Splice case ? 1110"
          }
        ],
        "modifierExtension": [
          {
            "url": "http://hl7.org/fhir/us/cqfmeasures/StructureDefinition/cqfm-isTestCase",
            "valueBoolean": true
          }
        ],
        "status": "complete",
        "type": "individual",
        "measure": "https://madie.cms.gov/Measure/CMS69FHIRPCSBMIScreenAndFollowUp",
        "period": {
          "start": "2026-01-01",
          "end": "2026-12-31"
        },
        "group": [
          {
            "id": "Group_1",
            "population": [
              {
                "id": "InitialPopulation_1",
                "code": {
                  "coding": [
                    {
                      "system": "http://terminology.hl7.org/CodeSystem/measure-population",
                      "code": "initial-population",
                      "display": "Initial Population"
                    }
                  ]
                },
                "count": 1
              },
              {
                "id": "Denominator_1",
                "code": {
                  "coding": [
                    {
                      "system": "http://terminology.hl7.org/CodeSystem/measure-population",
                      "code": "denominator",
                      "display": "Denominator"
                    }
                  ]
                },
                "count": 1
              },
              {
                "id": "DenominatorExclusion_1",
                "code": {
                  "coding": [
                    {
                      "system": "http://terminology.hl7.org/CodeSystem/measure-population",
                      "code": "denominator-exclusion",
                      "display": "Denominator Exclusion"
                    }
                  ]
                },
                "count": 1
              },
              {
                "id": "Numerator_1",
                "code": {
                  "coding": [
                    {
                      "system": "http://terminology.hl7.org/CodeSystem/measure-population",
                      "code": "numerator",
                      "display": "Numerator"
                    }
                  ]
                },
                "count": 0
              },
              {
                "id": "DenominatorException_1",
                "code": {
                  "coding": [
                    {
                      "system": "http://terminology.hl7.org/CodeSystem/measure-population",
                      "code": "denominator-exception",
                      "display": "Denominator Exception"
                    }
                  ]
                },
                "count": 0
              }
            ],
            "measureScore": {
              "value": 1.0
            }
          }
        ],
        "evaluatedResource": [
          {
            "reference": "Patient/86a542ea-a8de-49e8-be6d-6ca395a571fc"
          },
          {
            "reference": "Encounter/347d1db3-417b-48c9-b52c-cf67c0557cbd"
          },
          {
            "reference": "Procedure/ab4089e4-0f33-4e14-86fd-ed03e425751f"
          },
          {
            "reference": "Coverage/ff57dce1-b240-44aa-95b6-0c91994783db"
          },
          {
            "reference": "Organization/14398b8b-dbf2-4bb4-b036-ca214c8c2aeb"
          }
        ]
      },
      "request": {
        "method": "PUT",
        "url": "MeasureReport/53987676-4055-4dbd-9230-dfce95e501b8"
      }
    },
		{
			"fullUrl": "https://madie.cms.gov/Observation/f9899f3c-a195-43a7-ab45-a2b321651cd1",
			"resource": {
				"resourceType": "Observation",
				"id": "f9899f3c-a195-43a7-ab45-a2b321651cd1",
				"meta": {
					"profile": [ "http://hl7.org/fhir/us/qicore/StructureDefinition/qicore-observationcancelled" ]
				},
				"extension": [ {
					"url": "http://hl7.org/fhir/us/qicore/StructureDefinition/qicore-notDoneReason",
					"valueCodeableConcept": {
						"coding": [ {
							"system": "http://snomed.info/sct",
							"code": "183932001",
							"display": "Procedure contraindicated (situation)",
							"userSelected": true
						} ]
					}
				} ],
				"modifierExtension": [ {
					"url": "http://hl7.org/fhir/us/qicore/StructureDefinition/qicore-notDone",
					"valueBoolean": true
				} ],
				"status": "cancelled",
				"category": [ {
					"coding": [ {
						"system": "http://terminology.hl7.org/CodeSystem/observation-category",
						"code": "procedure",
						"display": "Procedure"
					} ]
				} ],
				"code": {
					"coding": [ {
						"system": "http://loinc.org",
						"code": "39156-5",
						"display": "Body mass index (BMI) [Ratio]",
						"userSelected": true
					} ]
				},
				"subject": {
					"reference": "Patient/86a542ea-a8de-49e8-be6d-6ca395a571fc"
				},
				"effectiveDateTime": "2026-12-31T23:30:00.000+00:00",
				"issued": "2026-12-31T23:30:00.000+00:00"
			},
			"request": {
				"method": "PUT",
				"url": "Observation/f9899f3c-a195-43a7-ab45-a2b321651cd1"
			}
		}  ]
}
