{
  "resourceType": "Bundle",
  "id": "DENEXPass-HospiceServiceRequestDuringMP",
  "type": "transaction",
  "entry": [ {
    "fullUrl": "https://madie.cms.gov/Patient/728333bf-6ff0-4d29-9181-3b6a30b7059a",
    "resource": {
      "resourceType": "Patient",
      "id": "728333bf-6ff0-4d29-9181-3b6a30b7059a",
      "meta": {
        "profile": [ "http://hl7.org/fhir/us/qicore/StructureDefinition/qicore-patient" ]
      },
      "extension": [ {
        "url": "http://hl7.org/fhir/us/core/StructureDefinition/us-core-race",
        "extension": [ {
          "url": "ombCategory",
          "valueCoding": {
            "system": "urn:oid:2.16.840.1.113883.6.238",
            "code": "2028-9",
            "display": "Asian",
            "userSelected": true
          }
        }, {
          "url": "text",
          "valueString": "Asian"
        } ]
      }, {
        "url": "http://hl7.org/fhir/us/core/StructureDefinition/us-core-ethnicity",
        "extension": [ {
          "url": "ombCategory",
          "valueCoding": {
            "system": "urn:oid:2.16.840.1.113883.6.238",
            "code": "2135-2",
            "display": "Hispanic or Latino",
            "userSelected": true
          }
        }, {
          "url": "text",
          "valueString": "Hispanic or Latino"
        } ]
      } ],
      "identifier": [ {
        "type": {
          "coding": [ {
            "system": "http://terminology.hl7.org/CodeSystem/v2-0203",
            "code": "MR"
          } ]
        },
        "system": "http://hospital.smarthealthit.org",
        "value": "999999995"
      } ],
      "name": [ {
        "family": "Bertha",
        "given": [ "Betty" ]
      } ],
      "gender": "female",
      "birthDate": "1954-12-31"
    },
    "request": {
      "method": "PUT",
      "url": "Patient/728333bf-6ff0-4d29-9181-3b6a30b7059a"
    }
  }, {
    "fullUrl": "https://madie.cms.gov/Encounter/6dddd1eb-0bfa-454e-9b33-c812e6fa7e78",
    "resource": {
      "resourceType": "Encounter",
      "id": "6dddd1eb-0bfa-454e-9b33-c812e6fa7e78",
      "meta": {
        "profile": [ "http://hl7.org/fhir/us/qicore/StructureDefinition/qicore-encounter" ]
      },
      "status": "finished",
      "class": {
        "system": "http://terminology.hl7.org/CodeSystem/v3-ActCode",
        "code": "AMB",
        "display": "ambulatory"
      },
      "type": [ {
        "coding": [ {
          "system": "http://snomed.info/sct",
          "code": "456201000124103",
          "display": "Medicare annual wellness visit (procedure)"
        } ]
      } ],
      "subject": {
        "reference": "Patient/728333bf-6ff0-4d29-9181-3b6a30b7059a"
      },
      "period": {
        "start": "2026-01-01T00:00:00.000+00:00",
        "end": "2026-01-01T00:00:00.000+00:00"
      }
    },
    "request": {
      "method": "PUT",
      "url": "Encounter/6dddd1eb-0bfa-454e-9b33-c812e6fa7e78"
    }
  }, {
    "fullUrl": "https://madie.cms.gov/Condition/08f7f5ff-ee84-4f53-82b9-77f34387e51b",
    "resource": {
      "resourceType": "Condition",
      "id": "08f7f5ff-ee84-4f53-82b9-77f34387e51b",
      "meta": {
        "profile": [ "http://hl7.org/fhir/us/qicore/StructureDefinition/qicore-condition-encounter-diagnosis" ]
      },
      "clinicalStatus": {
        "coding": [ {
          "system": "http://terminology.hl7.org/CodeSystem/condition-clinical",
          "code": "active"
        } ]
      },
      "category": [ {
        "coding": [ {
          "system": "http://terminology.hl7.org/CodeSystem/condition-category",
          "code": "problem-list-item",
          "display": "Problem List Item"
        } ]
      } ],
      "code": {
        "coding": [ {
          "system": "http://snomed.info/sct",
          "code": "102781000119107",
          "display": "Sensory neuropathy due to type 1 diabetes mellitus (disorder)"
        } ]
      },
      "subject": {
        "reference": "Patient/728333bf-6ff0-4d29-9181-3b6a30b7059a"
      },
      "onsetDateTime": "2026-01-01T00:00:00.000+00:00"
    },
    "request": {
      "method": "PUT",
      "url": "Condition/08f7f5ff-ee84-4f53-82b9-77f34387e51b"
    }
  }, {
    "fullUrl": "https://madie.cms.gov/ServiceRequest/3b36b6c0-89e4-45b9-9603-c567eae419e2",
    "resource": {
      "resourceType": "ServiceRequest",
      "id": "3b36b6c0-89e4-45b9-9603-c567eae419e2",
      "meta": {
        "profile": [ "http://hl7.org/fhir/us/qicore/StructureDefinition/qicore-servicerequest" ]
      },
      "status": "completed",
      "intent": "order",
      "category": [ {
        "coding": [ {
          "system": "http://snomed.info/sct",
          "code": "387713003",
          "display": "Surgical procedure"
        } ]
      } ],
      "priority": "routine",
      "code": {
        "coding": [ {
          "system": "http://snomed.info/sct",
          "code": "385763009",
          "display": "Hospice care (regime/therapy)"
        } ]
      },
      "subject": {
        "reference": "Patient/728333bf-6ff0-4d29-9181-3b6a30b7059a"
      },
      "authoredOn": "2026-01-02T00:00:00.000+00:00",
      "performerType": {
        "coding": [ {
          "system": "http://snomed.info/sct",
          "code": "405279007",
          "display": "Attending physician (occupation)"
        } ]
      }
    },
    "request": {
      "method": "PUT",
      "url": "ServiceRequest/3b36b6c0-89e4-45b9-9603-c567eae419e2"
    }
  }, {
    "fullUrl": "https://madie.cms.gov/MeasureReport/1f21dd1e-fbd8-4eca-9cf5-0d0013fd7204",
    "resource": {
      "resourceType": "MeasureReport",
      "id": "1f21dd1e-fbd8-4eca-9cf5-0d0013fd7204",
      "meta": {
        "profile": [ "http://hl7.org/fhir/us/cqfmeasures/StructureDefinition/test-case-cqfm" ]
      },
      "contained": [ {
        "resourceType": "Parameters",
        "id": "5a7f7c0a-7310-4997-b522-99fe56648593-parameters",
        "parameter": [ {
          "name": "subject",
          "valueString": "728333bf-6ff0-4d29-9181-3b6a30b7059a"
        } ]
      } ],
      "extension": [ {
        "url": "http://hl7.org/fhir/StructureDefinition/cqf-inputParameters",
        "valueReference": {
          "reference": "#5a7f7c0a-7310-4997-b522-99fe56648593-parameters"
        }
      }, {
        "url": "http://hl7.org/fhir/us/cqfmeasures/StructureDefinition/cqfm-testCaseDescription",
        "valueMarkdown": "Hospice service request during the MP"
      } ],
      "modifierExtension": [ {
        "url": "http://hl7.org/fhir/us/cqfmeasures/StructureDefinition/cqfm-isTestCase",
        "valueBoolean": true
      } ],
      "status": "complete",
      "type": "individual",
      "measure": "https://madie.cms.gov/Measure/CMS131FHIRDiabetesEyeExam",
      "period": {
        "start": "2026-01-01",
        "end": "2026-12-31"
      },
      "group": [ {
        "id": "Group_1",
        "population": [ {
          "id": "InitialPopulation_1",
          "code": {
            "coding": [ {
              "system": "http://terminology.hl7.org/CodeSystem/measure-population",
              "code": "initial-population",
              "display": "Initial Population"
            } ]
          },
          "count": 1
        }, {
          "id": "Denominator_1",
          "code": {
            "coding": [ {
              "system": "http://terminology.hl7.org/CodeSystem/measure-population",
              "code": "denominator",
              "display": "Denominator"
            } ]
          },
          "count": 1
        }, {
          "id": "DenominatorExclusion_1",
          "code": {
            "coding": [ {
              "system": "http://terminology.hl7.org/CodeSystem/measure-population",
              "code": "denominator-exclusion",
              "display": "Denominator Exclusion"
            } ]
          },
          "count": 1
        }, {
          "id": "Numerator_1",
          "code": {
            "coding": [ {
              "system": "http://terminology.hl7.org/CodeSystem/measure-population",
              "code": "numerator",
              "display": "Numerator"
            } ]
          },
          "count": 0
        } ],
        "measureScore": {
          "value": 1.0
        }
      } ],
      "evaluatedResource": [ {
        "reference": "Patient/728333bf-6ff0-4d29-9181-3b6a30b7059a"
      }, {
        "reference": "Encounter/6dddd1eb-0bfa-454e-9b33-c812e6fa7e78"
      }, {
        "reference": "Condition/08f7f5ff-ee84-4f53-82b9-77f34387e51b"
      }, {
        "reference": "ServiceRequest/3b36b6c0-89e4-45b9-9603-c567eae419e2"
      } ]
    },
    "request": {
      "method": "PUT",
      "url": "MeasureReport/1f21dd1e-fbd8-4eca-9cf5-0d0013fd7204"
    }
  } ]
}