{
  "resourceType": "Bundle",
  "id": "NUMFail-Age29HPVTestDuringMP",
  "type": "transaction",
  "entry": [ {
    "fullUrl": "https://madie.cms.gov/Patient/1104f4a8-5328-4629-8b7f-77f7b2e62225",
    "resource": {
      "resourceType": "Patient",
      "id": "1104f4a8-5328-4629-8b7f-77f7b2e62225",
      "meta": {
        "profile": [ "http://hl7.org/fhir/us/qicore/StructureDefinition/qicore-patient" ]
      },
      "extension": [ {
        "url": "http://hl7.org/fhir/us/core/StructureDefinition/us-core-race",
        "extension": [ {
          "url": "ombCategory",
          "valueCoding": {
            "system": "urn:oid:2.16.840.1.113883.6.238",
            "code": "2028-9",
            "display": "Asian"
          }
        }, {
          "url": "text",
          "valueString": "Asian"
        } ]
      }, {
        "url": "http://hl7.org/fhir/us/core/StructureDefinition/us-core-ethnicity",
        "extension": [ {
          "url": "ombCategory",
          "valueCoding": {
            "system": "urn:oid:2.16.840.1.113883.6.238",
            "code": "2135-2",
            "display": "Hispanic or Latino"
          }
        }, {
          "url": "text",
          "valueString": "Hispanic or Latino"
        } ]
      } ],
      "identifier": [ {
        "system": "http://hospital.smarthealthit.org",
        "value": "999999995"
      } ],
      "name": [ {
        "family": "Bertha",
        "given": [ "Betty" ]
      } ],
      "gender": "female",
      "birthDate": "1997-01-01"
    },
    "request": {
      "method": "PUT",
      "url": "Patient/1104f4a8-5328-4629-8b7f-77f7b2e62225"
    }
  }, {
    "fullUrl": "https://madie.cms.gov/Encounter/cd79df32-0cc2-4eac-8599-a23a087f18d2",
    "resource": {
      "resourceType": "Encounter",
      "id": "cd79df32-0cc2-4eac-8599-a23a087f18d2",
      "meta": {
        "profile": [ "http://hl7.org/fhir/us/qicore/StructureDefinition/qicore-encounter" ]
      },
      "status": "finished",
      "class": {
        "system": "http://terminology.hl7.org/CodeSystem/v3-ActCode",
        "code": "AMB",
        "display": "ambulatory"
      },
      "type": [ {
        "coding": [ {
          "system": "http://snomed.info/sct",
          "code": "185317003",
          "display": "Telephone encounter (procedure)"
        } ]
      } ],
      "subject": {
        "reference": "Patient/1104f4a8-5328-4629-8b7f-77f7b2e62225"
      },
      "period": {
        "start": "2026-01-01T01:00:00.000+00:00",
        "end": "2026-01-01T01:15:00.000+00:00"
      }
    },
    "request": {
      "method": "PUT",
      "url": "Encounter/cd79df32-0cc2-4eac-8599-a23a087f18d2"
    }
  }, {
    "fullUrl": "https://madie.cms.gov/Observation/c6ef3176-9fc4-4ee0-8638-33a6e388df2d",
    "resource": {
      "resourceType": "Observation",
      "id": "c6ef3176-9fc4-4ee0-8638-33a6e388df2d",
      "meta": {
        "profile": [ "http://hl7.org/fhir/us/qicore/StructureDefinition/qicore-observation" ]
      },
      "status": "final",
      "category": [ {
        "coding": [ {
          "system": "http://terminology.hl7.org/CodeSystem/observation-category",
          "code": "laboratory",
          "display": "laboratory"
        } ],
        "text": "laboratory"
      } ],
      "code": {
        "coding": [ {
          "system": "http://loinc.org",
          "code": "21440-3",
          "display": "Human papilloma virus 16+18+31+33+35+45+51+52+56 DNA [Presence] in Cervix by Probe"
        } ]
      },
      "subject": {
        "reference": "Patient/1104f4a8-5328-4629-8b7f-77f7b2e62225"
      },
      "effectivePeriod": {
        "start": "2026-12-31T00:00:00.000+00:00",
        "end": "2026-12-31T01:00:00.000+00:00"
      },
      "valueInteger": 1
    },
    "request": {
      "method": "PUT",
      "url": "Observation/c6ef3176-9fc4-4ee0-8638-33a6e388df2d"
    }
  }, {
    "fullUrl": "https://madie.cms.gov/MeasureReport/cc813194-1a35-49af-8c67-bae92ea8605c",
    "resource": {
      "resourceType": "MeasureReport",
      "id": "cc813194-1a35-49af-8c67-bae92ea8605c",
      "meta": {
        "profile": [ "http://hl7.org/fhir/us/cqfmeasures/StructureDefinition/test-case-cqfm" ]
      },
      "contained": [ {
        "resourceType": "Parameters",
        "id": "312a375e-c912-4093-b716-aa65815b53a4-parameters",
        "parameter": [ {
          "name": "subject",
          "valueString": "1104f4a8-5328-4629-8b7f-77f7b2e62225"
        } ]
      } ],
      "extension": [ {
        "url": "http://hl7.org/fhir/StructureDefinition/cqf-inputParameters",
        "valueReference": {
          "reference": "#312a375e-c912-4093-b716-aa65815b53a4-parameters"
        }
      }, {
        "url": "http://hl7.org/fhir/us/cqfmeasures/StructureDefinition/cqfm-testCaseDescription",
        "valueMarkdown": "Female 29 years old with HPV Test during MP"
      } ],
      "modifierExtension": [ {
        "url": "http://hl7.org/fhir/us/cqfmeasures/StructureDefinition/cqfm-isTestCase",
        "valueBoolean": true
      } ],
      "status": "complete",
      "type": "individual",
      "measure": "https://madie.cms.gov/Measure/CMS124FHIRCervicalCancerScreening",
      "period": {
        "start": "2026-01-01",
        "end": "2026-12-31"
      },
      "group": [ {
        "id": "Group_1",
        "population": [ {
          "id": "InitialPopulation_1",
          "code": {
            "coding": [ {
              "system": "http://terminology.hl7.org/CodeSystem/measure-population",
              "code": "initial-population",
              "display": "Initial Population"
            } ]
          },
          "count": 1
        }, {
          "id": "Denominator_1",
          "code": {
            "coding": [ {
              "system": "http://terminology.hl7.org/CodeSystem/measure-population",
              "code": "denominator",
              "display": "Denominator"
            } ]
          },
          "count": 1
        }, {
          "id": "DenominatorExclusion_1",
          "code": {
            "coding": [ {
              "system": "http://terminology.hl7.org/CodeSystem/measure-population",
              "code": "denominator-exclusion",
              "display": "Denominator Exclusion"
            } ]
          },
          "count": 0
        }, {
          "id": "Numerator_1",
          "code": {
            "coding": [ {
              "system": "http://terminology.hl7.org/CodeSystem/measure-population",
              "code": "numerator",
              "display": "Numerator"
            } ]
          },
          "count": 0
        } ],
        "measureScore": {
          "value": 1.0
        }
      } ],
      "evaluatedResource": [ {
        "reference": "Patient/1104f4a8-5328-4629-8b7f-77f7b2e62225"
      }, {
        "reference": "Encounter/cd79df32-0cc2-4eac-8599-a23a087f18d2"
      }, {
        "reference": "Observation/c6ef3176-9fc4-4ee0-8638-33a6e388df2d"
      } ]
    },
    "request": {
      "method": "PUT",
      "url": "MeasureReport/cc813194-1a35-49af-8c67-bae92ea8605c"
    }
  } ]
}