{
  "resourceType": "Bundle",
  "id": "610965b898086b538055c153",
  "type": "transaction",
  "entry": [ {
    "fullUrl": "https://madie.cms.gov/Patient/1d082b9c-26b3-4f59-b7f9-6f206c594506",
    "resource": {
      "resourceType": "Patient",
      "id": "1d082b9c-26b3-4f59-b7f9-6f206c594506",
      "meta": {
        "profile": [ "http://hl7.org/fhir/us/qicore/StructureDefinition/qicore-patient" ]
      },
      "text": {
        "status": "generated",
        "div": "<div xmlns=\"http://www.w3.org/1999/xhtml\"><div class=\"hapiHeaderText\">LabTestHIVDxDuringMPrelevantDatetime <b>NUMERPASS </b></div><table class=\"hapiPropertyTable\"><tbody><tr><td>Date of birth</td><td><span>31 July 1992</span></td></tr></tbody></table></div>"
      },
      "extension": [ {
        "url": "http://hl7.org/fhir/us/core/StructureDefinition/us-core-race",
        "extension": [ {
          "url": "ombCategory",
          "valueCoding": {
            "system": "urn:oid:2.16.840.1.113883.6.238",
            "code": "1002-5",
            "display": "American Indian or Alaska Native",
            "userSelected": true
          }
        }, {
          "url": "text",
          "valueString": "American Indian or Alaska Native"
        }, {
          "url": "detailed",
          "valueCoding": {
            "system": "urn:oid:2.16.840.1.113883.6.238",
            "code": "1653-5",
            "display": "Tohono O'Odham"
          }
        } ]
      }, {
        "url": "http://hl7.org/fhir/us/core/StructureDefinition/us-core-ethnicity",
        "extension": [ {
          "url": "ombCategory",
          "valueCoding": {
            "system": "urn:oid:2.16.840.1.113883.6.238",
            "code": "2135-2",
            "display": "Hispanic or Latino",
            "userSelected": true
          }
        }, {
          "url": "text",
          "valueString": "Not Hispanic or Latino"
        }, {
          "url": "detailed",
          "valueCoding": {
            "system": "urn:oid:2.16.840.1.113883.6.238",
            "code": "2153-5",
            "display": "Mexican American Indian"
          }
        } ]
      } ],
      "identifier": [ {
        "type": {
          "coding": [ {
            "system": "http://terminology.hl7.org/CodeSystem/v2-0203",
            "code": "MR"
          } ]
        },
        "system": "https://bonnie-fhir.healthit.gov/",
        "value": "610965b898086b538055c153"
      } ],
      "active": true,
      "name": [ {
        "use": "usual",
        "family": "NUMERPass",
        "given": [ "LabTestHIVDxDuringMPrelevantDatetime" ]
      } ],
      "gender": "male",
      "birthDate": "1994-07-31"
    },
    "request": {
      "method": "PUT",
      "url": "Patient/1d082b9c-26b3-4f59-b7f9-6f206c594506"
    }
  }, {
    "fullUrl": "https://madie.cms.gov/Condition/e004412a-bd54-42a8-a53f-43a333aa53ea",
    "resource": {
      "resourceType": "Condition",
      "id": "e004412a-bd54-42a8-a53f-43a333aa53ea",
      "meta": {
        "profile": [ "http://hl7.org/fhir/us/qicore/StructureDefinition/qicore-condition-encounter-diagnosis" ]
      },
      "clinicalStatus": {
        "coding": [ {
          "system": "http://terminology.hl7.org/CodeSystem/condition-clinical",
          "code": "inactive",
          "display": "inactive",
          "userSelected": true
        } ]
      },
      "verificationStatus": {
        "coding": [ {
          "system": "http://terminology.hl7.org/CodeSystem/condition-ver-status",
          "code": "confirmed",
          "display": "Confirmed",
          "userSelected": true
        } ]
      },
      "category": [ {
        "coding": [ {
          "system": "http://terminology.hl7.org/CodeSystem/condition-category",
          "code": "encounter-diagnosis",
          "display": "Encounter Diagnosis",
          "userSelected": true
        } ]
      } ],
      "code": {
        "coding": [ {
          "system": "http://hl7.org/fhir/sid/icd-9-cm",
          "code": "042"
        } ]
      },
      "subject": {
        "reference": "Patient/1d082b9c-26b3-4f59-b7f9-6f206c594506"
      },
      "onsetDateTime": "2026-07-31T08:00:00+00:00",
      "abatementDateTime": "2026-10-24T08:00:00+00:00"
    },
    "request": {
      "method": "PUT",
      "url": "Condition/e004412a-bd54-42a8-a53f-43a333aa53ea"
    }
  }, {
    "fullUrl": "https://madie.cms.gov/Encounter/ad8d447f-9163-4aae-8f67-5fa23688c34d",
    "resource": {
      "resourceType": "Encounter",
      "id": "ad8d447f-9163-4aae-8f67-5fa23688c34d",
      "meta": {
        "profile": [ "http://hl7.org/fhir/us/qicore/StructureDefinition/qicore-encounter" ]
      },
      "status": "finished",
      "class": {
        "system": "http://terminology.hl7.org/CodeSystem/v3-ActCode",
        "code": "AMB",
        "display": "ambulatory",
        "userSelected": true
      },
      "type": [ {
        "coding": [ {
          "system": "http://www.ama-assn.org/go/cpt",
          "code": "99214"
        } ]
      } ],
      "subject": {
        "reference": "Patient/1d082b9c-26b3-4f59-b7f9-6f206c594506"
      },
      "period": {
        "start": "2026-10-24T08:00:00+00:00",
        "end": "2026-10-24T08:15:00+00:00"
      }
    },
    "request": {
      "method": "PUT",
      "url": "Encounter/ad8d447f-9163-4aae-8f67-5fa23688c34d"
    }
  }, {
    "fullUrl": "https://madie.cms.gov/Observation/e20466e2-c9d3-4163-9deb-07813fea2329",
    "resource": {
      "resourceType": "Observation",
      "id": "e20466e2-c9d3-4163-9deb-07813fea2329",
      "meta": {
        "profile": [ "http://hl7.org/fhir/us/qicore/StructureDefinition/qicore-observation-lab" ]
      },
      "status": "final",
      "category": [ {
        "coding": [ {
          "system": "http://terminology.hl7.org/CodeSystem/observation-category",
          "code": "laboratory",
          "display": "Laboratory",
          "userSelected": true
        } ]
      } ],
      "code": {
        "coding": [ {
          "system": "http://loinc.org",
          "code": "75622-1"
        } ]
      },
      "subject": {
        "reference": "Patient/1d082b9c-26b3-4f59-b7f9-6f206c594506"
      },
      "effectiveDateTime": "2026-07-31T08:00:00+00:00",
      "valueBoolean": true
    },
    "request": {
      "method": "PUT",
      "url": "Observation/e20466e2-c9d3-4163-9deb-07813fea2329"
    }
  }, {
    "fullUrl": "https://madie.cms.gov/MeasureReport/40480e80-dccd-4123-87fb-d9a3a80ae011",
    "resource": {
      "resourceType": "MeasureReport",
      "id": "40480e80-dccd-4123-87fb-d9a3a80ae011",
      "meta": {
        "profile": [ "http://hl7.org/fhir/us/cqfmeasures/StructureDefinition/test-case-cqfm" ]
      },
      "contained": [ {
        "resourceType": "Parameters",
        "id": "90d19dad-3787-468a-8a87-0ad8737eead5-parameters",
        "parameter": [ {
          "name": "subject",
          "valueString": "1d082b9c-26b3-4f59-b7f9-6f206c594506"
        } ]
      } ],
      "extension": [ {
        "url": "http://hl7.org/fhir/StructureDefinition/cqf-inputParameters",
        "valueReference": {
          "reference": "#90d19dad-3787-468a-8a87-0ad8737eead5-parameters"
        }
      }, {
        "url": "http://hl7.org/fhir/us/cqfmeasures/StructureDefinition/cqfm-testCaseDescription",
        "valueMarkdown": "Patient 31 at start of MP, qual encounter during MP, HIV diagnosis starts during MP, invalid lab test at 31 during MP. - relevantDatetime"
      } ],
      "modifierExtension": [ {
        "url": "http://hl7.org/fhir/us/cqfmeasures/StructureDefinition/cqfm-isTestCase",
        "valueBoolean": true
      } ],
      "status": "complete",
      "type": "individual",
      "measure": "https://madie.cms.gov/Measure/CMS349FHIRHIVScreening",
      "period": {
        "start": "2026-01-01",
        "end": "2026-12-31"
      },
      "group": [ {
        "id": "Group_1",
        "population": [ {
          "id": "InitialPopulation_1",
          "code": {
            "coding": [ {
              "system": "http://terminology.hl7.org/CodeSystem/measure-population",
              "code": "initial-population",
              "display": "Initial Population"
            } ]
          },
          "count": 1
        }, {
          "id": "Denominator_1",
          "code": {
            "coding": [ {
              "system": "http://terminology.hl7.org/CodeSystem/measure-population",
              "code": "denominator",
              "display": "Denominator"
            } ]
          },
          "count": 1
        }, {
          "id": "DenominatorExclusion_1",
          "code": {
            "coding": [ {
              "system": "http://terminology.hl7.org/CodeSystem/measure-population",
              "code": "denominator-exclusion",
              "display": "Denominator Exclusion"
            } ]
          },
          "count": 0
        }, {
          "id": "Numerator_1",
          "code": {
            "coding": [ {
              "system": "http://terminology.hl7.org/CodeSystem/measure-population",
              "code": "numerator",
              "display": "Numerator"
            } ]
          },
          "count": 1
        }, {
          "id": "DenominatorException_1",
          "code": {
            "coding": [ {
              "system": "http://terminology.hl7.org/CodeSystem/measure-population",
              "code": "denominator-exception",
              "display": "Denominator Exception"
            } ]
          },
          "count": 0
        } ],
        "measureScore": {
          "value": 1.0
        }
      } ],
      "evaluatedResource": [ {
        "reference": "Patient/1d082b9c-26b3-4f59-b7f9-6f206c594506"
      }, {
        "reference": "Condition/e004412a-bd54-42a8-a53f-43a333aa53ea"
      }, {
        "reference": "Encounter/ad8d447f-9163-4aae-8f67-5fa23688c34d"
      }, {
        "reference": "Observation/e20466e2-c9d3-4163-9deb-07813fea2329"
      } ]
    },
    "request": {
      "method": "PUT",
      "url": "MeasureReport/40480e80-dccd-4123-87fb-d9a3a80ae011"
    }
  } ]
}