{
  "resourceType": "Bundle",
  "id": "62fbd755bf5132f90ee35d2c",
  "type": "transaction",
  "entry": [
    {
      "fullUrl": "https://madie.cms.gov/Patient/b98fcec4-23a5-41bd-82d8-bad2f50ffc9c",
      "resource": {
        "resourceType": "Patient",
        "id": "b98fcec4-23a5-41bd-82d8-bad2f50ffc9c",
        "meta": {
          "profile": [
            "http://hl7.org/fhir/us/qicore/StructureDefinition/qicore-patient"
          ]
        },
        "extension": [
          {
            "url": "http://hl7.org/fhir/us/core/StructureDefinition/us-core-race",
            "extension": [
              {
                "url": "ombCategory",
                "valueCoding": {
                  "system": "urn:oid:2.16.840.1.113883.6.238",
                  "code": "2106-3",
                  "display": "White",
                  "userSelected": true
                }
              },
              {
                "url": "text",
                "valueString": "White"
              }
            ]
          },
          {
            "url": "http://hl7.org/fhir/us/core/StructureDefinition/us-core-ethnicity",
            "extension": [
              {
                "url": "ombCategory",
                "valueCoding": {
                  "system": "urn:oid:2.16.840.1.113883.6.238",
                  "code": "2186-5",
                  "display": "Not Hispanic or Latino",
                  "userSelected": true
                }
              },
              {
                "url": "text",
                "valueString": "Not Hispanic or Latino"
              }
            ]
          }
        ],
        "identifier": [
          {
            "type": {
              "coding": [
                {
                  "system": "http://terminology.hl7.org/CodeSystem/v2-0203",
                  "code": "MR"
                }
              ]
            },
            "system": "https://bonnie-fhir.healthit.gov/",
            "value": "62fbd755bf5132f90ee35d2c"
          }
        ],
        "name": [
          {
            "family": "DENEXCEPPass",
            "given": ["NoFollowUpPlanMedicalReasonMedicationForBelowNormalBMI"]
          }
        ],
        "gender": "unknown",
        "birthDate": "1957-11-07"
      },
      "request": {
        "method": "PUT",
        "url": "Patient/b98fcec4-23a5-41bd-82d8-bad2f50ffc9c"
      }
    },
    {
      "fullUrl": "https://madie.cms.gov/Encounter/ef99806c-f166-4e2a-aa46-d13f57ca31c8",
      "resource": {
        "resourceType": "Encounter",
        "id": "ef99806c-f166-4e2a-aa46-d13f57ca31c8",
        "meta": {
          "profile": [
            "http://hl7.org/fhir/us/qicore/StructureDefinition/qicore-encounter"
          ]
        },
        "status": "finished",
        "class": {
          "system": "http://terminology.hl7.org/CodeSystem/v3-ActCode",
          "code": "AMB",
          "display": "ambulatory"
        },
        "type": [
          {
            "coding": [
              {
                "system": "http://snomed.info/sct",
                "version": "2022-03",
                "code": "78318003",
                "display": "History and physical examination, annual for health maintenance (procedure)",
                "userSelected": true
              }
            ]
          }
        ],
        "subject": {
          "reference": "Patient/b98fcec4-23a5-41bd-82d8-bad2f50ffc9c"
        },
        "period": {
          "start": "2026-01-01T00:00:00.000+00:00",
          "end": "2026-01-01T00:30:00.000+00:00"
        }
      },
      "request": {
        "method": "PUT",
        "url": "Encounter/ef99806c-f166-4e2a-aa46-d13f57ca31c8"
      }
    },
    {
      "fullUrl": "https://madie.cms.gov/Observation/11449887-c688-49fe-ba81-2d0087926461",
      "resource": {
        "resourceType": "Observation",
        "id": "11449887-c688-49fe-ba81-2d0087926461",
        "meta": {
          "profile": [
            "http://hl7.org/fhir/us/qicore/StructureDefinition/qicore-simple-observation"
          ]
        },
        "status": "final",
        "category": [
          {
            "coding": [
              {
                "system": "http://terminology.hl7.org/CodeSystem/observation-category",
                "code": "procedure",
                "display": "Procedure"
              }
            ]
          }
        ],
        "code": {
          "coding": [
            {
              "system": "http://loinc.org",
              "code": "39156-5",
              "display": "Body mass index (BMI) [Ratio]",
              "userSelected": true
            }
          ]
        },
        "subject": {
          "reference": "Patient/b98fcec4-23a5-41bd-82d8-bad2f50ffc9c"
        },
        "effectiveDateTime": "2026-01-01T00:01:00.000+00:00",
        "valueQuantity": {
          "value": 18.4,
          "unit": "kg/m2",
          "system": "http://unitsofmeasure.org",
          "code": "kg/m2"
        }
      },
      "request": {
        "method": "PUT",
        "url": "Observation/11449887-c688-49fe-ba81-2d0087926461"
      }
    },
    {
      "fullUrl": "https://madie.cms.gov/MedicationRequest/7ee80d4e-447e-4ca7-a19d-56dfb3d0dbb9",
      "resource": {
        "resourceType": "MedicationRequest",
        "id": "7ee80d4e-447e-4ca7-a19d-56dfb3d0dbb9",
        "meta": {
          "profile": [
            "http://hl7.org/fhir/us/qicore/StructureDefinition/qicore-medicationnotrequested"
          ]
        },
        "extension": [
          {
            "url": "http://hl7.org/fhir/us/qicore/StructureDefinition/qicore-notDoneReason",
            "valueCodeableConcept": {
              "coding": [
                {
                  "system": "http://snomed.info/sct",
                  "code": "183932001",
                  "display": "Procedure contraindicated (situation)",
                  "userSelected": true
                }
              ]
            }
          }
        ],
        "status": "completed",
        "intent": "order",
        "doNotPerform": true,
        "medicationCodeableConcept": {
          "coding": [
            {
              "system": "http://www.nlm.nih.gov/research/umls/rxnorm",
              "code": "1928948",
              "display": "dronabinol 5 MG/ML Oral Solution",
              "userSelected": true
            }
          ]
        },
        "subject": {
          "reference": "Patient/b98fcec4-23a5-41bd-82d8-bad2f50ffc9c"
        },
        "authoredOn": "2026-01-01T00:01:00.000+00:00",
        "requester": {
          "reference": "Practitioner/f007",
          "display": "Patrick Pump"
        },
        "reasonCode": [
          {
            "coding": [
              {
                "system": "http://snomed.info/sct",
                "code": "416098002",
                "display": "Allergy to drug (finding)"
              }
            ]
          }
        ]
      },
      "request": {
        "method": "PUT",
        "url": "MedicationRequest/7ee80d4e-447e-4ca7-a19d-56dfb3d0dbb9"
      }
    },
    {
      "fullUrl": "https://madie.cms.gov/Coverage/94986580-f41b-414e-a35f-5432bf897356",
      "resource": {
        "resourceType": "Coverage",
        "id": "94986580-f41b-414e-a35f-5432bf897356",
        "meta": {
          "profile": [
            "http://hl7.org/fhir/us/qicore/StructureDefinition/qicore-coverage"
          ]
        },
        "status": "active",
        "beneficiary": {
          "reference": "Patient/b98fcec4-23a5-41bd-82d8-bad2f50ffc9c"
        },
        "payor": [
          {
            "reference": "Organization/d7f048cc-7e4e-4949-815f-e6b9784b8455"
          }
        ]
      },
      "request": {
        "method": "PUT",
        "url": "Coverage/94986580-f41b-414e-a35f-5432bf897356"
      }
    },
    {
      "fullUrl": "https://madie.cms.gov/Organization/d7f048cc-7e4e-4949-815f-e6b9784b8455",
      "resource": {
        "resourceType": "Organization",
        "id": "d7f048cc-7e4e-4949-815f-e6b9784b8455",
        "meta": {
          "profile": [
            "http://hl7.org/fhir/us/qicore/StructureDefinition/qicore-organization"
          ]
        },
        "identifier": [
          {
            "use": "temp",
            "system": "urn:oid:2.16.840.1.113883.4.4",
            "value": "21-3259825"
          }
        ],
        "active": true,
        "type": [
          {
            "coding": [
              {
                "system": "http://terminology.hl7.org/CodeSystem/organization-type",
                "code": "pay",
                "display": "Payer"
              }
            ]
          }
        ],
        "name": "Blue Cross Blue Shield of Texas",
        "telecom": [
          {
            "system": "phone",
            "value": "(+1) 972-766-6900"
          }
        ],
        "address": [
          {
            "use": "billing",
            "type": "postal",
            "line": ["P.O. Box 660044"],
            "city": "Dallas",
            "state": "TX",
            "postalCode": "75266-0044",
            "country": "USA"
          }
        ]
      },
      "request": {
        "method": "PUT",
        "url": "Organization/d7f048cc-7e4e-4949-815f-e6b9784b8455"
      }
    },
    {
      "fullUrl": "https://madie.cms.gov/MeasureReport/e964d23a-306d-47df-b8a2-1b328033628e",
      "resource": {
        "resourceType": "MeasureReport",
        "id": "e964d23a-306d-47df-b8a2-1b328033628e",
        "meta": {
          "profile": [
            "http://hl7.org/fhir/us/cqfmeasures/StructureDefinition/test-case-cqfm"
          ]
        },
        "contained": [
          {
            "resourceType": "Parameters",
            "id": "50387562-9244-41f0-b797-34ccc0e11ccc-parameters",
            "parameter": [
              {
                "name": "subject",
                "valueString": "b98fcec4-23a5-41bd-82d8-bad2f50ffc9c"
              }
            ]
          }
        ],
        "extension": [
          {
            "url": "http://hl7.org/fhir/StructureDefinition/cqf-inputParameters",
            "valueReference": {
              "reference": "#50387562-9244-41f0-b797-34ccc0e11ccc-parameters"
            }
          },
          {
            "url": "http://hl7.org/fhir/us/cqfmeasures/StructureDefinition/cqfm-testCaseDescription",
            "valueMarkdown": "Enc first day, first minutes of MP, BMI low @ 18.4 kg/m2  with medical reason for not providing medication.  "
          }
        ],
        "modifierExtension": [
          {
            "url": "http://hl7.org/fhir/us/cqfmeasures/StructureDefinition/cqfm-isTestCase",
            "valueBoolean": true
          }
        ],
        "status": "complete",
        "type": "individual",
        "measure": "https://madie.cms.gov/Measure/CMS69FHIRPCSBMIScreenAndFollowUp",
        "period": {
          "start": "2026-01-01",
          "end": "2026-12-31"
        },
        "group": [
          {
            "id": "Group_1",
            "population": [
              {
                "id": "InitialPopulation_1",
                "code": {
                  "coding": [
                    {
                      "system": "http://terminology.hl7.org/CodeSystem/measure-population",
                      "code": "initial-population",
                      "display": "Initial Population"
                    }
                  ]
                },
                "count": 1
              },
              {
                "id": "Denominator_1",
                "code": {
                  "coding": [
                    {
                      "system": "http://terminology.hl7.org/CodeSystem/measure-population",
                      "code": "denominator",
                      "display": "Denominator"
                    }
                  ]
                },
                "count": 1
              },
              {
                "id": "DenominatorExclusion_1",
                "code": {
                  "coding": [
                    {
                      "system": "http://terminology.hl7.org/CodeSystem/measure-population",
                      "code": "denominator-exclusion",
                      "display": "Denominator Exclusion"
                    }
                  ]
                },
                "count": 0
              },
              {
                "id": "Numerator_1",
                "code": {
                  "coding": [
                    {
                      "system": "http://terminology.hl7.org/CodeSystem/measure-population",
                      "code": "numerator",
                      "display": "Numerator"
                    }
                  ]
                },
                "count": 0
              },
              {
                "id": "DenominatorException_1",
                "code": {
                  "coding": [
                    {
                      "system": "http://terminology.hl7.org/CodeSystem/measure-population",
                      "code": "denominator-exception",
                      "display": "Denominator Exception"
                    }
                  ]
                },
                "count": 1
              }
            ],
            "measureScore": {
              "value": 1.0
            }
          }
        ],
        "evaluatedResource": [
          {
            "reference": "Patient/b98fcec4-23a5-41bd-82d8-bad2f50ffc9c"
          },
          {
            "reference": "Encounter/ef99806c-f166-4e2a-aa46-d13f57ca31c8"
          },
          {
            "reference": "Observation/11449887-c688-49fe-ba81-2d0087926461"
          },
          {
            "reference": "MedicationRequest/7ee80d4e-447e-4ca7-a19d-56dfb3d0dbb9"
          },
          {
            "reference": "Coverage/94986580-f41b-414e-a35f-5432bf897356"
          },
          {
            "reference": "Organization/d7f048cc-7e4e-4949-815f-e6b9784b8455"
          }
        ]
      },
      "request": {
        "method": "PUT",
        "url": "MeasureReport/e964d23a-306d-47df-b8a2-1b328033628e"
      }
    }
  ]
}
