{
  "resourceType": "Bundle",
  "id": "DENEXPass-66yoWAIFrailEncOnJan1OfYrB4MP",
  "type": "transaction",
  "entry": [ {
    "fullUrl": "https://madie.cms.gov/Patient/0c9d7ae1-4643-4c50-bc48-0274a3f2d234",
    "resource": {
      "resourceType": "Patient",
      "id": "0c9d7ae1-4643-4c50-bc48-0274a3f2d234",
      "meta": {
        "profile": [ "http://hl7.org/fhir/us/qicore/StructureDefinition/qicore-patient" ]
      },
      "extension": [ {
        "url": "http://hl7.org/fhir/us/core/StructureDefinition/us-core-race",
        "extension": [ {
          "url": "ombCategory",
          "valueCoding": {
            "system": "urn:oid:2.16.840.1.113883.6.238",
            "code": "2028-9",
            "display": "Asian"
          }
        }, {
          "url": "text",
          "valueString": "Asian"
        } ]
      }, {
        "url": "http://hl7.org/fhir/us/core/StructureDefinition/us-core-ethnicity",
        "extension": [ {
          "url": "ombCategory",
          "valueCoding": {
            "system": "urn:oid:2.16.840.1.113883.6.238",
            "code": "2135-2",
            "display": "Hispanic or Latino"
          }
        }, {
          "url": "text",
          "valueString": "Hispanic or Latino"
        } ]
      } ],
      "identifier": [ {
        "system": "http://hospital.smarthealthit.org",
        "value": "999999995"
      } ],
      "name": [ {
        "family": "Bertha",
        "given": [ "Betty" ]
      } ],
      "gender": "female",
      "birthDate": "1959-12-31"
    },
    "request": {
      "method": "PUT",
      "url": "Patient/0c9d7ae1-4643-4c50-bc48-0274a3f2d234"
    }
  }, {
    "fullUrl": "https://madie.cms.gov/Encounter/c81d7f53-c761-49a8-b378-369f4a99f38d",
    "resource": {
      "resourceType": "Encounter",
      "id": "c81d7f53-c761-49a8-b378-369f4a99f38d",
      "meta": {
        "profile": [ "http://hl7.org/fhir/us/qicore/StructureDefinition/qicore-encounter" ]
      },
      "status": "finished",
      "class": {
        "system": "http://terminology.hl7.org/CodeSystem/v3-ActCode",
        "code": "AMB",
        "display": "ambulatory"
      },
      "type": [ {
        "coding": [ {
          "system": "http://snomed.info/sct",
          "code": "185463005",
          "display": "Visit out of hours (procedure)"
        } ]
      } ],
      "subject": {
        "reference": "Patient/0c9d7ae1-4643-4c50-bc48-0274a3f2d234"
      },
      "period": {
        "start": "2026-01-01T00:00:00.000+00:00",
        "end": "2026-01-01T00:00:00.000+00:00"
      }
    },
    "request": {
      "method": "PUT",
      "url": "Encounter/c81d7f53-c761-49a8-b378-369f4a99f38d"
    }
  }, {
    "fullUrl": "https://madie.cms.gov/Condition/9781ab42-ea44-4fa0-8284-0aeeb18fe5a6",
    "resource": {
      "resourceType": "Condition",
      "id": "9781ab42-ea44-4fa0-8284-0aeeb18fe5a6",
      "meta": {
        "profile": [ "http://hl7.org/fhir/us/qicore/StructureDefinition/qicore-condition-encounter-diagnosis" ]
      },
      "clinicalStatus": {
        "coding": [ {
          "system": "http://terminology.hl7.org/CodeSystem/condition-clinical",
          "code": "active"
        } ]
      },
      "category": [ {
        "coding": [ {
          "system": "http://terminology.hl7.org/CodeSystem/condition-category",
          "code": "problem-list-item",
          "display": "Problem List Item"
        } ]
      } ],
      "code": {
        "coding": [ {
          "system": "http://snomed.info/sct",
          "code": "102781000119107",
          "display": "Sensory neuropathy due to type 1 diabetes mellitus (disorder)"
        } ]
      },
      "subject": {
        "reference": "Patient/0c9d7ae1-4643-4c50-bc48-0274a3f2d234"
      },
      "onsetDateTime": "2026-01-01T00:00:00.000+00:00"
    },
    "request": {
      "method": "PUT",
      "url": "Condition/9781ab42-ea44-4fa0-8284-0aeeb18fe5a6"
    }
  }, {
    "fullUrl": "https://madie.cms.gov/Encounter/c81d7f53-c761-49a8-b378-369f4a99f38d.1",
    "resource": {
      "resourceType": "Encounter",
      "id": "c81d7f53-c761-49a8-b378-369f4a99f38d.1",
      "meta": {
        "profile": [ "http://hl7.org/fhir/us/qicore/StructureDefinition/qicore-encounter" ]
      },
      "status": "finished",
      "class": {
        "system": "http://terminology.hl7.org/CodeSystem/v3-ActCode",
        "code": "AMB",
        "display": "ambulatory"
      },
      "type": [ {
        "coding": [ {
          "system": "http://snomed.info/sct",
          "code": "10378005",
          "display": "Hospital admission, emergency, from emergency room, accidental injury (procedure)"
        } ]
      } ],
      "subject": {
        "reference": "Patient/0c9d7ae1-4643-4c50-bc48-0274a3f2d234"
      },
      "period": {
        "start": "2024-01-01T00:00:00.000+00:00",
        "end": "2024-01-01T00:00:00.000+00:00"
      },
      "diagnosis": [ {
        "condition": {
          "reference": "Condition/3bc888ab-c4dc-42b3-93b6-0199622a193d"
        }
      } ]
    },
    "request": {
      "method": "PUT",
      "url": "Encounter/c81d7f53-c761-49a8-b378-369f4a99f38d.1"
    }
  }, {
    "fullUrl": "https://madie.cms.gov/Condition/3bc888ab-c4dc-42b3-93b6-0199622a193d",
    "resource": {
      "resourceType": "Condition",
      "id": "3bc888ab-c4dc-42b3-93b6-0199622a193d",
      "meta": {
        "profile": [ "http://hl7.org/fhir/us/qicore/StructureDefinition/qicore-condition-encounter-diagnosis" ]
      },
      "clinicalStatus": {
        "coding": [ {
          "system": "http://terminology.hl7.org/CodeSystem/condition-clinical",
          "code": "active"
        } ]
      },
      "category": [ {
        "coding": [ {
          "system": "http://terminology.hl7.org/CodeSystem/condition-category",
          "code": "problem-list-item",
          "display": "Problem List Item"
        } ]
      } ],
      "code": {
        "coding": [ {
          "system": "http://snomed.info/sct",
          "code": "100721000119109",
          "display": "High grade astrocytoma of brain (disorder)"
        } ]
      },
      "subject": {
        "reference": "Patient/0c9d7ae1-4643-4c50-bc48-0274a3f2d234"
      },
      "onsetDateTime": "2026-01-01T00:00:00.000+00:00"
    },
    "request": {
      "method": "PUT",
      "url": "Condition/3bc888ab-c4dc-42b3-93b6-0199622a193d"
    }
  }, {
    "fullUrl": "https://madie.cms.gov/DeviceRequest/a9ad3443-4893-4211-ae92-d3fe37a8c415",
    "resource": {
      "resourceType": "DeviceRequest",
      "id": "a9ad3443-4893-4211-ae92-d3fe37a8c415",
      "meta": {
        "profile": [ "http://hl7.org/fhir/us/qicore/StructureDefinition/qicore-devicerequest" ]
      },
      "modifierExtension": [ {
        "url": "http://hl7.org/fhir/us/qicore/StructureDefinition/qicore-doNotPeform",
        "valueBoolean": false
      } ],
      "status": "completed",
      "intent": "order",
      "codeCodeableConcept": {
        "coding": [ {
          "system": "http://snomed.info/sct",
          "code": "183240000",
          "display": "Self-propelled wheelchair (physical object)"
        } ]
      },
      "subject": {
        "reference": "Patient/0c9d7ae1-4643-4c50-bc48-0274a3f2d234"
      },
      "authoredOn": "2026-01-01T00:00:00.000+00:00"
    },
    "request": {
      "method": "PUT",
      "url": "DeviceRequest/a9ad3443-4893-4211-ae92-d3fe37a8c415"
    }
  }, {
    "fullUrl": "https://madie.cms.gov/MeasureReport/eb7e6d98-10d9-4135-9199-8eaf7fb28971",
    "resource": {
      "resourceType": "MeasureReport",
      "id": "eb7e6d98-10d9-4135-9199-8eaf7fb28971",
      "meta": {
        "profile": [ "http://hl7.org/fhir/us/cqfmeasures/StructureDefinition/test-case-cqfm" ]
      },
      "contained": [ {
        "resourceType": "Parameters",
        "id": "11bd6c4e-b2eb-4120-8630-3db21a0abf97-parameters",
        "parameter": [ {
          "name": "subject",
          "valueString": "0c9d7ae1-4643-4c50-bc48-0274a3f2d234"
        } ]
      } ],
      "extension": [ {
        "url": "http://hl7.org/fhir/StructureDefinition/cqf-inputParameters",
        "valueReference": {
          "reference": "#11bd6c4e-b2eb-4120-8630-3db21a0abf97-parameters"
        }
      }, {
        "url": "http://hl7.org/fhir/us/cqfmeasures/StructureDefinition/cqfm-testCaseDescription",
        "valueMarkdown": "Patient 66yo w/ an Office Visit  Encounter 1/1 of the MP, Diabetes Condition ending 1/1 during the MP, & an Advanced Illness & Frailty Encounter that starts on 1/1 of the year before the MP."
      } ],
      "modifierExtension": [ {
        "url": "http://hl7.org/fhir/us/cqfmeasures/StructureDefinition/cqfm-isTestCase",
        "valueBoolean": true
      } ],
      "status": "complete",
      "type": "individual",
      "measure": "https://madie.cms.gov/Measure/CMS131FHIRDiabetesEyeExam",
      "period": {
        "start": "2026-01-01",
        "end": "2026-12-31"
      },
      "group": [ {
        "id": "Group_1",
        "population": [ {
          "id": "InitialPopulation_1",
          "code": {
            "coding": [ {
              "system": "http://terminology.hl7.org/CodeSystem/measure-population",
              "code": "initial-population",
              "display": "Initial Population"
            } ]
          },
          "count": 1
        }, {
          "id": "Denominator_1",
          "code": {
            "coding": [ {
              "system": "http://terminology.hl7.org/CodeSystem/measure-population",
              "code": "denominator",
              "display": "Denominator"
            } ]
          },
          "count": 1
        }, {
          "id": "DenominatorExclusion_1",
          "code": {
            "coding": [ {
              "system": "http://terminology.hl7.org/CodeSystem/measure-population",
              "code": "denominator-exclusion",
              "display": "Denominator Exclusion"
            } ]
          },
          "count": 1
        }, {
          "id": "Numerator_1",
          "code": {
            "coding": [ {
              "system": "http://terminology.hl7.org/CodeSystem/measure-population",
              "code": "numerator",
              "display": "Numerator"
            } ]
          },
          "count": 0
        } ],
        "measureScore": {
          "value": 1.0
        }
      } ],
      "evaluatedResource": [ {
        "reference": "Patient/0c9d7ae1-4643-4c50-bc48-0274a3f2d234"
      }, {
        "reference": "Encounter/c81d7f53-c761-49a8-b378-369f4a99f38d"
      }, {
        "reference": "Condition/9781ab42-ea44-4fa0-8284-0aeeb18fe5a6"
      }, {
        "reference": "Encounter/c81d7f53-c761-49a8-b378-369f4a99f38d.1"
      }, {
        "reference": "Condition/3bc888ab-c4dc-42b3-93b6-0199622a193d"
      }, {
        "reference": "DeviceRequest/a9ad3443-4893-4211-ae92-d3fe37a8c415"
      } ]
    },
    "request": {
      "method": "PUT",
      "url": "MeasureReport/eb7e6d98-10d9-4135-9199-8eaf7fb28971"
    }
  } ]
}