{
  "resourceType": "Bundle",
  "id": "610965b898086b538055c146",
  "type": "transaction",
  "entry": [ {
    "fullUrl": "https://madie.cms.gov/Patient/41abc473-f005-4664-aa67-773f9b2f77e7",
    "resource": {
      "resourceType": "Patient",
      "id": "41abc473-f005-4664-aa67-773f9b2f77e7",
      "meta": {
        "profile": [ "http://hl7.org/fhir/us/qicore/StructureDefinition/qicore-patient" ]
      },
      "text": {
        "status": "generated",
        "div": "<div xmlns=\"http://www.w3.org/1999/xhtml\"><div class=\"hapiHeaderText\">Patient15StartMP <b>IPPPASS </b></div><table class=\"hapiPropertyTable\"><tbody><tr><td>Identifier</td><td>604d2e51a95dc1c7ed644bda9409fd1cd9b88013d7cf822b73c0547dcd33ea53</td></tr><tr><td>Date of birth</td><td><span>01 January 1997</span></td></tr></tbody></table></div>"
      },
      "extension": [ {
        "url": "http://hl7.org/fhir/us/core/StructureDefinition/us-core-race",
        "extension": [ {
          "url": "ombCategory",
          "valueCoding": {
            "system": "urn:oid:2.16.840.1.113883.6.238",
            "code": "1002-5",
            "display": "American Indian or Alaska Native",
            "userSelected": true
          }
        }, {
          "url": "text",
          "valueString": "American Indian or Alaska Native"
        } ]
      }, {
        "url": "http://hl7.org/fhir/us/core/StructureDefinition/us-core-ethnicity",
        "extension": [ {
          "url": "ombCategory",
          "valueCoding": {
            "system": "urn:oid:2.16.840.1.113883.6.238",
            "code": "2135-2",
            "display": "Hispanic or Latino",
            "userSelected": true
          }
        }, {
          "url": "text",
          "valueString": "Hispanic or Latino"
        } ]
      } ],
      "identifier": [ {
        "type": {
          "coding": [ {
            "system": "http://terminology.hl7.org/CodeSystem/v2-0203",
            "code": "MR"
          } ]
        },
        "system": "https://bonnie-fhir.healthit.gov/",
        "value": "610965b898086b538055c146"
      } ],
      "active": true,
      "name": [ {
        "use": "usual",
        "family": "IPPPass",
        "given": [ "Age15Jan1" ]
      } ],
      "gender": "female",
      "birthDate": "2010-01-01"
    },
    "request": {
      "method": "PUT",
      "url": "Patient/41abc473-f005-4664-aa67-773f9b2f77e7"
    }
  }, {
    "fullUrl": "https://madie.cms.gov/Encounter/080252e3-2f94-4cae-898a-5a11b97b9d96",
    "resource": {
      "resourceType": "Encounter",
      "id": "080252e3-2f94-4cae-898a-5a11b97b9d96",
      "meta": {
        "profile": [ "http://hl7.org/fhir/us/qicore/StructureDefinition/qicore-encounter" ]
      },
      "status": "finished",
      "class": {
        "system": "http://terminology.hl7.org/CodeSystem/v3-ActCode",
        "code": "AMB",
        "display": "ambulatory",
        "userSelected": true
      },
      "type": [ {
        "coding": [ {
          "system": "http://www.ama-assn.org/go/cpt",
          "code": "99381"
        } ]
      } ],
      "subject": {
        "reference": "Patient/41abc473-f005-4664-aa67-773f9b2f77e7"
      },
      "period": {
        "start": "2026-10-24T08:00:00.000+00:00",
        "end": "2026-10-24T08:15:00.000+00:00"
      }
    },
    "request": {
      "method": "PUT",
      "url": "Encounter/080252e3-2f94-4cae-898a-5a11b97b9d96"
    }
  }, {
    "fullUrl": "https://madie.cms.gov/Encounter/21ea8f3f-f4b3-452f-b74f-705abaee5735",
    "resource": {
      "resourceType": "Encounter",
      "id": "21ea8f3f-f4b3-452f-b74f-705abaee5735",
      "meta": {
        "profile": [ "http://hl7.org/fhir/us/qicore/StructureDefinition/qicore-encounter" ]
      },
      "status": "finished",
      "class": {
        "system": "http://terminology.hl7.org/CodeSystem/v3-ActCode",
        "code": "AMB",
        "display": "ambulatory",
        "userSelected": true
      },
      "type": [ {
        "coding": [ {
          "system": "http://www.ama-assn.org/go/cpt",
          "code": "99394"
        } ]
      } ],
      "subject": {
        "reference": "Patient/b26beebe-30ab-4734-b1d1-958ff70e29ca"
      },
      "period": {
        "start": "2026-09-24T08:00:00.000+00:00",
        "end": "2026-09-24T08:15:00.000+00:00"
      }
    },
    "request": {
      "method": "PUT",
      "url": "Encounter/21ea8f3f-f4b3-452f-b74f-705abaee5735"
    }
  }, {
    "fullUrl": "https://madie.cms.gov/MeasureReport/35e3f88f-0354-4125-ac2c-6520274bec44",
    "resource": {
      "resourceType": "MeasureReport",
      "id": "35e3f88f-0354-4125-ac2c-6520274bec44",
      "meta": {
        "profile": [ "http://hl7.org/fhir/us/cqfmeasures/StructureDefinition/test-case-cqfm" ]
      },
      "contained": [ {
        "resourceType": "Parameters",
        "id": "808528c9-8632-44e0-83e7-17f025976f83-parameters",
        "parameter": [ {
          "name": "subject",
          "valueString": "41abc473-f005-4664-aa67-773f9b2f77e7"
        } ]
      } ],
      "extension": [ {
        "url": "http://hl7.org/fhir/StructureDefinition/cqf-inputParameters",
        "valueReference": {
          "reference": "#808528c9-8632-44e0-83e7-17f025976f83-parameters"
        }
      }, {
        "url": "http://hl7.org/fhir/us/cqfmeasures/StructureDefinition/cqfm-testCaseDescription",
        "valueMarkdown": "Patient has qualifying encounter and is age 15 on Jan 1. "
      } ],
      "modifierExtension": [ {
        "url": "http://hl7.org/fhir/us/cqfmeasures/StructureDefinition/cqfm-isTestCase",
        "valueBoolean": true
      } ],
      "status": "complete",
      "type": "individual",
      "measure": "https://madie.cms.gov/Measure/CMS349FHIRHIVScreening",
      "period": {
        "start": "2026-01-01",
        "end": "2026-12-31"
      },
      "group": [ {
        "id": "Group_1",
        "population": [ {
          "id": "InitialPopulation_1",
          "code": {
            "coding": [ {
              "system": "http://terminology.hl7.org/CodeSystem/measure-population",
              "code": "initial-population",
              "display": "Initial Population"
            } ]
          },
          "count": 1
        }, {
          "id": "Denominator_1",
          "code": {
            "coding": [ {
              "system": "http://terminology.hl7.org/CodeSystem/measure-population",
              "code": "denominator",
              "display": "Denominator"
            } ]
          },
          "count": 1
        }, {
          "id": "DenominatorExclusion_1",
          "code": {
            "coding": [ {
              "system": "http://terminology.hl7.org/CodeSystem/measure-population",
              "code": "denominator-exclusion",
              "display": "Denominator Exclusion"
            } ]
          },
          "count": 0
        }, {
          "id": "Numerator_1",
          "code": {
            "coding": [ {
              "system": "http://terminology.hl7.org/CodeSystem/measure-population",
              "code": "numerator",
              "display": "Numerator"
            } ]
          },
          "count": 0
        }, {
          "id": "DenominatorException_1",
          "code": {
            "coding": [ {
              "system": "http://terminology.hl7.org/CodeSystem/measure-population",
              "code": "denominator-exception",
              "display": "Denominator Exception"
            } ]
          },
          "count": 0
        } ],
        "measureScore": {
          "value": 1.0
        }
      } ],
      "evaluatedResource": [ {
        "reference": "Patient/41abc473-f005-4664-aa67-773f9b2f77e7"
      }, {
        "reference": "Encounter/080252e3-2f94-4cae-898a-5a11b97b9d96"
      }, {
        "reference": "Encounter/21ea8f3f-f4b3-452f-b74f-705abaee5735"
      } ]
    },
    "request": {
      "method": "PUT",
      "url": "MeasureReport/35e3f88f-0354-4125-ac2c-6520274bec44"
    }
  } ]
}