{
  "resourceType": "Bundle",
  "id": "DENEXFail-66yoInNursingHomeOnJan1AfterInterval",
  "type": "transaction",
  "entry": [ {
    "fullUrl": "https://madie.cms.gov/Patient/89073685-3807-41f5-bc32-2cf44c1b8227",
    "resource": {
      "resourceType": "Patient",
      "id": "89073685-3807-41f5-bc32-2cf44c1b8227",
      "meta": {
        "profile": [ "http://hl7.org/fhir/us/qicore/StructureDefinition/qicore-patient" ]
      },
      "extension": [ {
        "url": "http://hl7.org/fhir/us/core/StructureDefinition/us-core-race",
        "extension": [ {
          "url": "ombCategory",
          "valueCoding": {
            "system": "urn:oid:2.16.840.1.113883.6.238",
            "code": "2028-9",
            "display": "Asian"
          }
        }, {
          "url": "text",
          "valueString": "Asian"
        } ]
      }, {
        "url": "http://hl7.org/fhir/us/core/StructureDefinition/us-core-ethnicity",
        "extension": [ {
          "url": "ombCategory",
          "valueCoding": {
            "system": "urn:oid:2.16.840.1.113883.6.238",
            "code": "2135-2",
            "display": "Hispanic or Latino"
          }
        }, {
          "url": "text",
          "valueString": "Hispanic or Latino"
        } ]
      } ],
      "identifier": [ {
        "system": "http://hospital.smarthealthit.org",
        "value": "999999995"
      } ],
      "name": [ {
        "family": "Bertha",
        "given": [ "Betty" ]
      } ],
      "gender": "female",
      "birthDate": "1961-12-31"
    },
    "request": {
      "method": "PUT",
      "url": "Patient/89073685-3807-41f5-bc32-2cf44c1b8227"
    }
  }, {
    "fullUrl": "https://madie.cms.gov/Encounter/c7ca1b11-4555-447a-bf19-4bf9fc0ed10b",
    "resource": {
      "resourceType": "Encounter",
      "id": "c7ca1b11-4555-447a-bf19-4bf9fc0ed10b",
      "meta": {
        "profile": [ "http://hl7.org/fhir/us/qicore/StructureDefinition/qicore-encounter" ]
      },
      "status": "finished",
      "class": {
        "system": "http://terminology.hl7.org/CodeSystem/v3-ActCode",
        "code": "AMB",
        "display": "ambulatory"
      },
      "type": [ {
        "coding": [ {
          "system": "http://snomed.info/sct",
          "code": "185463005",
          "display": "Visit out of hours (procedure)"
        } ]
      } ],
      "subject": {
        "reference": "Patient/89073685-3807-41f5-bc32-2cf44c1b8227"
      },
      "period": {
        "start": "2026-01-01T00:00:00.000+00:00",
        "end": "2026-01-01T00:00:00.000+00:00"
      }
    },
    "request": {
      "method": "PUT",
      "url": "Encounter/c7ca1b11-4555-447a-bf19-4bf9fc0ed10b"
    }
  }, {
    "fullUrl": "https://madie.cms.gov/Condition/15140521-268d-4caf-aa2a-54457db94959",
    "resource": {
      "resourceType": "Condition",
      "id": "15140521-268d-4caf-aa2a-54457db94959",
      "meta": {
        "profile": [ "http://hl7.org/fhir/us/qicore/StructureDefinition/qicore-condition-encounter-diagnosis" ]
      },
      "clinicalStatus": {
        "coding": [ {
          "system": "http://terminology.hl7.org/CodeSystem/condition-clinical",
          "code": "active"
        } ]
      },
      "category": [ {
        "coding": [ {
          "system": "http://terminology.hl7.org/CodeSystem/condition-category",
          "code": "problem-list-item",
          "display": "Problem List Item"
        } ]
      } ],
      "code": {
        "coding": [ {
          "system": "http://snomed.info/sct",
          "code": "102781000119107",
          "display": "Sensory neuropathy due to type 1 diabetes mellitus (disorder)"
        } ]
      },
      "subject": {
        "reference": "Patient/89073685-3807-41f5-bc32-2cf44c1b8227"
      },
      "onsetDateTime": "2026-01-01T00:00:00.000+00:00"
    },
    "request": {
      "method": "PUT",
      "url": "Condition/15140521-268d-4caf-aa2a-54457db94959"
    }
  }, {
    "fullUrl": "https://madie.cms.gov/Observation/69e616dc-22d8-4c5f-aa4b-635cf3c0912c",
    "resource": {
      "resourceType": "Observation",
      "id": "69e616dc-22d8-4c5f-aa4b-635cf3c0912c",
      "meta": {
        "profile": [ "http://hl7.org/fhir/us/qicore/StructureDefinition/qicore-observation-screening-assessment" ]
      },
      "status": "final",
      "category": [ {
        "coding": [ {
          "system": "http://terminology.hl7.org/CodeSystem/observation-category",
          "code": "survey"
        } ]
      } ],
      "code": {
        "coding": [ {
          "system": "http://loinc.org",
          "code": "71802-3",
          "display": "Housing status"
        } ]
      },
      "subject": {
        "reference": "Patient/89073685-3807-41f5-bc32-2cf44c1b8227"
      },
      "effectivePeriod": {
        "start": "2026-01-01T00:00:00.000+00:00",
        "end": "2026-01-01T00:00:00.000+00:00"
      },
      "valueCodeableConcept": {
        "coding": [ {
          "system": "http://snomed.info/sct",
          "code": "160734000",
          "display": "Lives in a nursing home (finding)"
        } ]
      }
    },
    "request": {
      "method": "PUT",
      "url": "Observation/69e616dc-22d8-4c5f-aa4b-635cf3c0912c"
    }
  }, {
    "fullUrl": "https://madie.cms.gov/MeasureReport/ded8e334-a90f-48a8-9a0e-53f90610e73d",
    "resource": {
      "resourceType": "MeasureReport",
      "id": "ded8e334-a90f-48a8-9a0e-53f90610e73d",
      "meta": {
        "profile": [ "http://hl7.org/fhir/us/cqfmeasures/StructureDefinition/test-case-cqfm" ]
      },
      "contained": [ {
        "resourceType": "Parameters",
        "id": "79af6bbe-b7a5-49c2-b4e8-e823ff624e77-parameters",
        "parameter": [ {
          "name": "subject",
          "valueString": "89073685-3807-41f5-bc32-2cf44c1b8227"
        } ]
      } ],
      "extension": [ {
        "url": "http://hl7.org/fhir/StructureDefinition/cqf-inputParameters",
        "valueReference": {
          "reference": "#79af6bbe-b7a5-49c2-b4e8-e823ff624e77-parameters"
        }
      }, {
        "url": "http://hl7.org/fhir/us/cqfmeasures/StructureDefinition/cqfm-testCaseDescription",
        "valueMarkdown": "Patient 66yo w/ an Office Visit Encounter 1/1 of the MP, & Diabetes Condition ending 1/1 during the MP, & an Observation AIFrailty Living In Nursing Home that starts on 1/1 the year after the MP."
      } ],
      "modifierExtension": [ {
        "url": "http://hl7.org/fhir/us/cqfmeasures/StructureDefinition/cqfm-isTestCase",
        "valueBoolean": true
      } ],
      "status": "complete",
      "type": "individual",
      "measure": "https://madie.cms.gov/Measure/CMS131FHIRDiabetesEyeExam",
      "period": {
        "start": "2026-01-01",
        "end": "2026-12-31"
      },
      "group": [ {
        "id": "Group_1",
        "population": [ {
          "id": "InitialPopulation_1",
          "code": {
            "coding": [ {
              "system": "http://terminology.hl7.org/CodeSystem/measure-population",
              "code": "initial-population",
              "display": "Initial Population"
            } ]
          },
          "count": 1
        }, {
          "id": "Denominator_1",
          "code": {
            "coding": [ {
              "system": "http://terminology.hl7.org/CodeSystem/measure-population",
              "code": "denominator",
              "display": "Denominator"
            } ]
          },
          "count": 1
        }, {
          "id": "DenominatorExclusion_1",
          "code": {
            "coding": [ {
              "system": "http://terminology.hl7.org/CodeSystem/measure-population",
              "code": "denominator-exclusion",
              "display": "Denominator Exclusion"
            } ]
          },
          "count": 0
        }, {
          "id": "Numerator_1",
          "code": {
            "coding": [ {
              "system": "http://terminology.hl7.org/CodeSystem/measure-population",
              "code": "numerator",
              "display": "Numerator"
            } ]
          },
          "count": 0
        } ],
        "measureScore": {
          "value": 1.0
        }
      } ],
      "evaluatedResource": [ {
        "reference": "Patient/89073685-3807-41f5-bc32-2cf44c1b8227"
      }, {
        "reference": "Encounter/c7ca1b11-4555-447a-bf19-4bf9fc0ed10b"
      }, {
        "reference": "Condition/15140521-268d-4caf-aa2a-54457db94959"
      }, {
        "reference": "Observation/69e616dc-22d8-4c5f-aa4b-635cf3c0912c"
      } ]
    },
    "request": {
      "method": "PUT",
      "url": "MeasureReport/ded8e334-a90f-48a8-9a0e-53f90610e73d"
    }
  } ]
}