{
  "resourceType": "Bundle",
  "id": "NUMFail-Age30HPVTestBeforeFourYearsPriorMP",
  "type": "transaction",
  "entry": [ {
    "fullUrl": "https://madie.cms.gov/Patient/59ef157d-1417-4a8e-9193-06d9c66ba8e1",
    "resource": {
      "resourceType": "Patient",
      "id": "59ef157d-1417-4a8e-9193-06d9c66ba8e1",
      "meta": {
        "profile": [ "http://hl7.org/fhir/us/qicore/StructureDefinition/qicore-patient" ]
      },
      "extension": [ {
        "url": "http://hl7.org/fhir/us/core/StructureDefinition/us-core-race",
        "extension": [ {
          "url": "ombCategory",
          "valueCoding": {
            "system": "urn:oid:2.16.840.1.113883.6.238",
            "code": "2028-9",
            "display": "Asian"
          }
        }, {
          "url": "text",
          "valueString": "Asian"
        } ]
      }, {
        "url": "http://hl7.org/fhir/us/core/StructureDefinition/us-core-ethnicity",
        "extension": [ {
          "url": "ombCategory",
          "valueCoding": {
            "system": "urn:oid:2.16.840.1.113883.6.238",
            "code": "2135-2",
            "display": "Hispanic or Latino"
          }
        }, {
          "url": "text",
          "valueString": "Hispanic or Latino"
        } ]
      } ],
      "identifier": [ {
        "system": "http://hospital.smarthealthit.org",
        "value": "999999995"
      } ],
      "name": [ {
        "family": "Bertha",
        "given": [ "Betty" ]
      } ],
      "gender": "female",
      "birthDate": "1996-12-31"
    },
    "request": {
      "method": "PUT",
      "url": "Patient/59ef157d-1417-4a8e-9193-06d9c66ba8e1"
    }
  }, {
    "fullUrl": "https://madie.cms.gov/Encounter/5787dd49-6b22-45bd-946a-b8d6dd90de18",
    "resource": {
      "resourceType": "Encounter",
      "id": "5787dd49-6b22-45bd-946a-b8d6dd90de18",
      "meta": {
        "profile": [ "http://hl7.org/fhir/us/qicore/StructureDefinition/qicore-encounter" ]
      },
      "status": "finished",
      "class": {
        "system": "http://terminology.hl7.org/CodeSystem/v3-ActCode",
        "code": "AMB",
        "display": "ambulatory"
      },
      "type": [ {
        "coding": [ {
          "system": "http://snomed.info/sct",
          "code": "185317003",
          "display": "Telephone encounter (procedure)"
        } ]
      } ],
      "subject": {
        "reference": "Patient/59ef157d-1417-4a8e-9193-06d9c66ba8e1"
      },
      "period": {
        "start": "2026-01-01T01:00:00.000+00:00",
        "end": "2026-01-01T01:15:00.000+00:00"
      }
    },
    "request": {
      "method": "PUT",
      "url": "Encounter/5787dd49-6b22-45bd-946a-b8d6dd90de18"
    }
  }, {
    "fullUrl": "https://madie.cms.gov/Observation/bfa3c4d9-6366-4f88-8e2d-3edd01355041",
    "resource": {
      "resourceType": "Observation",
      "id": "bfa3c4d9-6366-4f88-8e2d-3edd01355041",
      "meta": {
        "profile": [ "http://hl7.org/fhir/us/qicore/StructureDefinition/qicore-observation" ]
      },
      "status": "final",
      "category": [ {
        "coding": [ {
          "system": "http://terminology.hl7.org/CodeSystem/observation-category",
          "code": "laboratory",
          "display": "laboratory"
        } ],
        "text": "laboratory"
      } ],
      "code": {
        "coding": [ {
          "system": "http://loinc.org",
          "code": "21440-3",
          "display": "Human papilloma virus 16+18+31+33+35+45+51+52+56 DNA [Presence] in Cervix by Probe"
        } ]
      },
      "subject": {
        "reference": "Patient/59ef157d-1417-4a8e-9193-06d9c66ba8e1"
      },
      "effectivePeriod": {
        "start": "2021-12-31T23:00:00.000+00:00",
        "end": "2021-12-31T23:59:00.000+00:00"
      },
      "valueInteger": 1
    },
    "request": {
      "method": "PUT",
      "url": "Observation/bfa3c4d9-6366-4f88-8e2d-3edd01355041"
    }
  }, {
    "fullUrl": "https://madie.cms.gov/MeasureReport/fbf69275-3a79-48b0-a59d-1c02c8ff3c3a",
    "resource": {
      "resourceType": "MeasureReport",
      "id": "fbf69275-3a79-48b0-a59d-1c02c8ff3c3a",
      "meta": {
        "profile": [ "http://hl7.org/fhir/us/cqfmeasures/StructureDefinition/test-case-cqfm" ]
      },
      "contained": [ {
        "resourceType": "Parameters",
        "id": "b5d2ff6f-5318-483b-b7eb-818b3404f3b2-parameters",
        "parameter": [ {
          "name": "subject",
          "valueString": "59ef157d-1417-4a8e-9193-06d9c66ba8e1"
        } ]
      } ],
      "extension": [ {
        "url": "http://hl7.org/fhir/StructureDefinition/cqf-inputParameters",
        "valueReference": {
          "reference": "#b5d2ff6f-5318-483b-b7eb-818b3404f3b2-parameters"
        }
      }, {
        "url": "http://hl7.org/fhir/us/cqfmeasures/StructureDefinition/cqfm-testCaseDescription",
        "valueMarkdown": "Female 30 years old with HPV Test before four years prior MP"
      } ],
      "modifierExtension": [ {
        "url": "http://hl7.org/fhir/us/cqfmeasures/StructureDefinition/cqfm-isTestCase",
        "valueBoolean": true
      } ],
      "status": "complete",
      "type": "individual",
      "measure": "https://madie.cms.gov/Measure/CMS124FHIRCervicalCancerScreening",
      "period": {
        "start": "2026-01-01",
        "end": "2026-12-31"
      },
      "group": [ {
        "id": "Group_1",
        "population": [ {
          "id": "InitialPopulation_1",
          "code": {
            "coding": [ {
              "system": "http://terminology.hl7.org/CodeSystem/measure-population",
              "code": "initial-population",
              "display": "Initial Population"
            } ]
          },
          "count": 1
        }, {
          "id": "Denominator_1",
          "code": {
            "coding": [ {
              "system": "http://terminology.hl7.org/CodeSystem/measure-population",
              "code": "denominator",
              "display": "Denominator"
            } ]
          },
          "count": 1
        }, {
          "id": "DenominatorExclusion_1",
          "code": {
            "coding": [ {
              "system": "http://terminology.hl7.org/CodeSystem/measure-population",
              "code": "denominator-exclusion",
              "display": "Denominator Exclusion"
            } ]
          },
          "count": 0
        }, {
          "id": "Numerator_1",
          "code": {
            "coding": [ {
              "system": "http://terminology.hl7.org/CodeSystem/measure-population",
              "code": "numerator",
              "display": "Numerator"
            } ]
          },
          "count": 0
        } ],
        "measureScore": {
          "value": 1.0
        }
      } ],
      "evaluatedResource": [ {
        "reference": "Patient/59ef157d-1417-4a8e-9193-06d9c66ba8e1"
      }, {
        "reference": "Encounter/5787dd49-6b22-45bd-946a-b8d6dd90de18"
      }, {
        "reference": "Observation/bfa3c4d9-6366-4f88-8e2d-3edd01355041"
      } ]
    },
    "request": {
      "method": "PUT",
      "url": "MeasureReport/fbf69275-3a79-48b0-a59d-1c02c8ff3c3a"
    }
  } ]
}