{
  "resourceType": "Bundle",
  "id": "DENEXPass-FrailtyDeviceRequestNotPerformedFalse",
  "type": "transaction",
  "entry": [ {
    "fullUrl": "https://madie.cms.gov/Patient/d4540640-2561-4ebd-b7c6-15878a4dc582",
    "resource": {
      "resourceType": "Patient",
      "id": "d4540640-2561-4ebd-b7c6-15878a4dc582",
      "meta": {
        "profile": [ "http://hl7.org/fhir/us/qicore/StructureDefinition/qicore-patient" ]
      },
      "extension": [ {
        "url": "http://hl7.org/fhir/us/core/StructureDefinition/us-core-race",
        "extension": [ {
          "url": "ombCategory",
          "valueCoding": {
            "system": "urn:oid:2.16.840.1.113883.6.238",
            "code": "2028-9",
            "display": "Asian",
            "userSelected": true
          }
        }, {
          "url": "text",
          "valueString": "Asian"
        } ]
      }, {
        "url": "http://hl7.org/fhir/us/core/StructureDefinition/us-core-ethnicity",
        "extension": [ {
          "url": "ombCategory",
          "valueCoding": {
            "system": "urn:oid:2.16.840.1.113883.6.238",
            "code": "2135-2",
            "display": "Hispanic or Latino",
            "userSelected": true
          }
        }, {
          "url": "text",
          "valueString": "Hispanic or Latino"
        } ]
      } ],
      "identifier": [ {
        "type": {
          "coding": [ {
            "system": "http://terminology.hl7.org/CodeSystem/v2-0203",
            "code": "MR"
          } ]
        },
        "system": "http://hospital.smarthealthit.org",
        "value": "999999995"
      } ],
      "name": [ {
        "family": "Bertha",
        "given": [ "Betty" ]
      } ],
      "gender": "female",
      "birthDate": "1952-12-31"
    },
    "request": {
      "method": "PUT",
      "url": "Patient/d4540640-2561-4ebd-b7c6-15878a4dc582"
    }
  }, {
    "fullUrl": "https://madie.cms.gov/Encounter/ed1417d8-8c29-466f-8183-9c9cbaeb6d27",
    "resource": {
      "resourceType": "Encounter",
      "id": "ed1417d8-8c29-466f-8183-9c9cbaeb6d27",
      "meta": {
        "profile": [ "http://hl7.org/fhir/us/qicore/StructureDefinition/qicore-encounter" ]
      },
      "status": "finished",
      "class": {
        "system": "http://terminology.hl7.org/CodeSystem/v3-ActCode",
        "code": "AMB",
        "display": "ambulatory"
      },
      "type": [ {
        "coding": [ {
          "system": "http://snomed.info/sct",
          "code": "185463005",
          "display": "Visit out of hours (procedure)"
        } ]
      } ],
      "subject": {
        "reference": "Patient/d4540640-2561-4ebd-b7c6-15878a4dc582"
      },
      "period": {
        "start": "2026-12-31T00:00:00.000+00:00",
        "end": "2026-12-31T23:59:59.000+00:00"
      }
    },
    "request": {
      "method": "PUT",
      "url": "Encounter/ed1417d8-8c29-466f-8183-9c9cbaeb6d27"
    }
  }, {
    "fullUrl": "https://madie.cms.gov/MedicationRequest/8000c4cf-5b51-4b8c-bcb7-4824a1d68a74",
    "resource": {
      "resourceType": "MedicationRequest",
      "id": "8000c4cf-5b51-4b8c-bcb7-4824a1d68a74",
      "meta": {
        "profile": [ "http://hl7.org/fhir/us/qicore/StructureDefinition/qicore-medicationrequest" ]
      },
      "status": "active",
      "intent": "order",
      "doNotPerform": false,
      "medicationCodeableConcept": {
        "coding": [ {
          "system": "http://www.nlm.nih.gov/research/umls/rxnorm",
          "code": "312836",
          "display": "rivastigmine 6 MG Oral Capsule"
        } ]
      },
      "subject": {
        "reference": "Patient/d4540640-2561-4ebd-b7c6-15878a4dc582"
      },
      "authoredOn": "2026-12-30T00:00:00.000+00:00",
      "requester": {
        "reference": "Practitioner/example"
      },
      "dispenseRequest": {
        "expectedSupplyDuration": {
          "value": 90,
          "system": "http://unitsofmeasure.org",
          "code": "days"
        }
      }
    },
    "request": {
      "method": "PUT",
      "url": "MedicationRequest/8000c4cf-5b51-4b8c-bcb7-4824a1d68a74"
    }
  }, {
    "fullUrl": "https://madie.cms.gov/DeviceRequest/96ac8b3d-6b72-4341-879e-e246ef477af4",
    "resource": {
      "resourceType": "DeviceRequest",
      "id": "96ac8b3d-6b72-4341-879e-e246ef477af4",
      "meta": {
        "profile": [ "http://hl7.org/fhir/us/qicore/StructureDefinition/qicore-devicerequest" ]
      },
      "modifierExtension": [ {
        "url": "http://hl7.org/fhir/us/qicore/StructureDefinition/qicore-doNotPerform",
        "valueBoolean": false
      } ],
      "status": "completed",
      "intent": "order",
      "codeCodeableConcept": {
        "coding": [ {
          "system": "http://snomed.info/sct",
          "code": "183240000",
          "display": "Self-propelled wheelchair (physical object)"
        } ]
      },
      "subject": {
        "reference": "Patient/d4540640-2561-4ebd-b7c6-15878a4dc582"
      },
      "authoredOn": "2026-11-01T23:59:00.000+00:00"
    },
    "request": {
      "method": "PUT",
      "url": "DeviceRequest/96ac8b3d-6b72-4341-879e-e246ef477af4"
    }
  }, {
    "fullUrl": "https://madie.cms.gov/MeasureReport/57611a8a-b6d3-480e-b425-84fbb12060e1",
    "resource": {
      "resourceType": "MeasureReport",
      "id": "57611a8a-b6d3-480e-b425-84fbb12060e1",
      "meta": {
        "profile": [ "http://hl7.org/fhir/us/cqfmeasures/StructureDefinition/test-case-cqfm" ]
      },
      "contained": [ {
        "resourceType": "Parameters",
        "id": "aa10a280-7127-4618-a682-64dc2760aa47-parameters",
        "parameter": [ {
          "name": "subject",
          "valueString": "d4540640-2561-4ebd-b7c6-15878a4dc582"
        } ]
      } ],
      "extension": [ {
        "url": "http://hl7.org/fhir/StructureDefinition/cqf-inputParameters",
        "valueReference": {
          "reference": "#aa10a280-7127-4618-a682-64dc2760aa47-parameters"
        }
      }, {
        "url": "http://hl7.org/fhir/us/cqfmeasures/StructureDefinition/cqfm-testCaseDescription",
        "valueMarkdown": "Frailty device request doNotPerform modifier extension is false"
      } ],
      "modifierExtension": [ {
        "url": "http://hl7.org/fhir/us/cqfmeasures/StructureDefinition/cqfm-isTestCase",
        "valueBoolean": true
      } ],
      "status": "complete",
      "type": "individual",
      "measure": "https://madie.cms.gov/Measure/BreastCancerScreeningFHIR",
      "period": {
        "start": "2026-01-01",
        "end": "2026-12-31"
      },
      "group": [ {
        "id": "Group_1",
        "population": [ {
          "id": "InitialPopulation_1",
          "code": {
            "coding": [ {
              "system": "http://terminology.hl7.org/CodeSystem/measure-population",
              "code": "initial-population",
              "display": "Initial Population"
            } ]
          },
          "count": 1
        }, {
          "id": "Denominator_1",
          "code": {
            "coding": [ {
              "system": "http://terminology.hl7.org/CodeSystem/measure-population",
              "code": "denominator",
              "display": "Denominator"
            } ]
          },
          "count": 1
        }, {
          "id": "DenominatorExclusion_1",
          "code": {
            "coding": [ {
              "system": "http://terminology.hl7.org/CodeSystem/measure-population",
              "code": "denominator-exclusion",
              "display": "Denominator Exclusion"
            } ]
          },
          "count": 1
        }, {
          "id": "Numerator_1",
          "code": {
            "coding": [ {
              "system": "http://terminology.hl7.org/CodeSystem/measure-population",
              "code": "numerator",
              "display": "Numerator"
            } ]
          },
          "count": 0
        } ],
        "measureScore": {
          "value": 1
        }
      } ],
      "evaluatedResource": [ {
        "reference": "Patient/d4540640-2561-4ebd-b7c6-15878a4dc582"
      }, {
        "reference": "Encounter/ed1417d8-8c29-466f-8183-9c9cbaeb6d27"
      }, {
        "reference": "MedicationRequest/8000c4cf-5b51-4b8c-bcb7-4824a1d68a74"
      }, {
        "reference": "DeviceRequest/96ac8b3d-6b72-4341-879e-e246ef477af4"
      } ]
    },
    "request": {
      "method": "PUT",
      "url": "MeasureReport/57611a8a-b6d3-480e-b425-84fbb12060e1"
    }
  }, {
    "fullUrl": "https://madie.cms.gov/MeasureReport/c8c7f5da-7eb1-45cd-8402-7e30370ff35c",
    "resource": {
      "resourceType": "MeasureReport",
      "id": "c8c7f5da-7eb1-45cd-8402-7e30370ff35c",
      "meta": {
        "profile": [ "http://hl7.org/fhir/us/cqfmeasures/StructureDefinition/test-case-cqfm" ]
      },
      "contained": [ {
        "resourceType": "Parameters",
        "id": "310c380b-5440-41d6-bb31-6f286e12f253-parameters",
        "parameter": [ {
          "name": "subject",
          "valueString": "d4540640-2561-4ebd-b7c6-15878a4dc582"
        } ]
      } ],
      "extension": [ {
        "url": "http://hl7.org/fhir/StructureDefinition/cqf-inputParameters",
        "valueReference": {
          "reference": "#310c380b-5440-41d6-bb31-6f286e12f253-parameters"
        }
      }, {
        "url": "http://hl7.org/fhir/us/cqfmeasures/StructureDefinition/cqfm-testCaseDescription",
        "valueMarkdown": "Frailty device request doNotPerform modifier extension is false"
      } ],
      "modifierExtension": [ {
        "url": "http://hl7.org/fhir/us/cqfmeasures/StructureDefinition/cqfm-isTestCase",
        "valueBoolean": true
      } ],
      "status": "complete",
      "type": "individual",
      "measure": "https://madie.cms.gov/Measure/CMS125FHIRBreastCancerScreening",
      "period": {
        "start": "2026-01-01",
        "end": "2026-12-31"
      },
      "group": [ {
        "id": "Group_1",
        "population": [ {
          "id": "InitialPopulation_1",
          "code": {
            "coding": [ {
              "system": "http://terminology.hl7.org/CodeSystem/measure-population",
              "code": "initial-population",
              "display": "Initial Population"
            } ]
          },
          "count": 1
        }, {
          "id": "Denominator_1",
          "code": {
            "coding": [ {
              "system": "http://terminology.hl7.org/CodeSystem/measure-population",
              "code": "denominator",
              "display": "Denominator"
            } ]
          },
          "count": 1
        }, {
          "id": "DenominatorExclusion_1",
          "code": {
            "coding": [ {
              "system": "http://terminology.hl7.org/CodeSystem/measure-population",
              "code": "denominator-exclusion",
              "display": "Denominator Exclusion"
            } ]
          },
          "count": 1
        }, {
          "id": "Numerator_1",
          "code": {
            "coding": [ {
              "system": "http://terminology.hl7.org/CodeSystem/measure-population",
              "code": "numerator",
              "display": "Numerator"
            } ]
          },
          "count": 0
        } ],
        "measureScore": {
          "value": 1.0
        },
        "stratifier": [ {
          "id": "Stratification_1_1",
          "code": [ {
            "text": "Stratification 1"
          } ],
          "stratum": [ {
            "value": {
              "text": "true"
            },
            "population": [ {
              "id": "InitialPopulation_1",
              "code": {
                "coding": [ {
                  "system": "http://terminology.hl7.org/CodeSystem/measure-population",
                  "code": "initial-population",
                  "display": "Initial Population"
                } ]
              },
              "count": 0
            }, {
              "id": "Denominator_1",
              "code": {
                "coding": [ {
                  "system": "http://terminology.hl7.org/CodeSystem/measure-population",
                  "code": "denominator",
                  "display": "Denominator"
                } ]
              },
              "count": 0
            }, {
              "id": "DenominatorExclusion_1",
              "code": {
                "coding": [ {
                  "system": "http://terminology.hl7.org/CodeSystem/measure-population",
                  "code": "denominator-exclusion",
                  "display": "Denominator Exclusion"
                } ]
              },
              "count": 0
            }, {
              "id": "Numerator_1",
              "code": {
                "coding": [ {
                  "system": "http://terminology.hl7.org/CodeSystem/measure-population",
                  "code": "numerator",
                  "display": "Numerator"
                } ]
              },
              "count": 0
            } ]
          }, {
            "value": {
              "text": "false"
            },
            "population": [ {
              "id": "InitialPopulation_1",
              "code": {
                "coding": [ {
                  "system": "http://terminology.hl7.org/CodeSystem/measure-population",
                  "code": "initial-population",
                  "display": "Initial Population"
                } ]
              },
              "count": 1
            }, {
              "id": "Denominator_1",
              "code": {
                "coding": [ {
                  "system": "http://terminology.hl7.org/CodeSystem/measure-population",
                  "code": "denominator",
                  "display": "Denominator"
                } ]
              },
              "count": 1
            }, {
              "id": "DenominatorExclusion_1",
              "code": {
                "coding": [ {
                  "system": "http://terminology.hl7.org/CodeSystem/measure-population",
                  "code": "denominator-exclusion",
                  "display": "Denominator Exclusion"
                } ]
              },
              "count": 1
            }, {
              "id": "Numerator_1",
              "code": {
                "coding": [ {
                  "system": "http://terminology.hl7.org/CodeSystem/measure-population",
                  "code": "numerator",
                  "display": "Numerator"
                } ]
              },
              "count": 1
            } ]
          } ]
        }, {
          "id": "Stratification_1_2",
          "code": [ {
            "text": "Stratification 2"
          } ],
          "stratum": [ {
            "value": {
              "text": "true"
            },
            "population": [ {
              "id": "InitialPopulation_1",
              "code": {
                "coding": [ {
                  "system": "http://terminology.hl7.org/CodeSystem/measure-population",
                  "code": "initial-population",
                  "display": "Initial Population"
                } ]
              },
              "count": 1
            }, {
              "id": "Denominator_1",
              "code": {
                "coding": [ {
                  "system": "http://terminology.hl7.org/CodeSystem/measure-population",
                  "code": "denominator",
                  "display": "Denominator"
                } ]
              },
              "count": 1
            }, {
              "id": "DenominatorExclusion_1",
              "code": {
                "coding": [ {
                  "system": "http://terminology.hl7.org/CodeSystem/measure-population",
                  "code": "denominator-exclusion",
                  "display": "Denominator Exclusion"
                } ]
              },
              "count": 1
            }, {
              "id": "Numerator_1",
              "code": {
                "coding": [ {
                  "system": "http://terminology.hl7.org/CodeSystem/measure-population",
                  "code": "numerator",
                  "display": "Numerator"
                } ]
              },
              "count": 0
            } ]
          }, {
            "value": {
              "text": "false"
            },
            "population": [ {
              "id": "InitialPopulation_1",
              "code": {
                "coding": [ {
                  "system": "http://terminology.hl7.org/CodeSystem/measure-population",
                  "code": "initial-population",
                  "display": "Initial Population"
                } ]
              },
              "count": 0
            }, {
              "id": "Denominator_1",
              "code": {
                "coding": [ {
                  "system": "http://terminology.hl7.org/CodeSystem/measure-population",
                  "code": "denominator",
                  "display": "Denominator"
                } ]
              },
              "count": 0
            }, {
              "id": "DenominatorExclusion_1",
              "code": {
                "coding": [ {
                  "system": "http://terminology.hl7.org/CodeSystem/measure-population",
                  "code": "denominator-exclusion",
                  "display": "Denominator Exclusion"
                } ]
              },
              "count": 0
            }, {
              "id": "Numerator_1",
              "code": {
                "coding": [ {
                  "system": "http://terminology.hl7.org/CodeSystem/measure-population",
                  "code": "numerator",
                  "display": "Numerator"
                } ]
              },
              "count": 1
            } ]
          } ]
        } ]
      } ],
      "evaluatedResource": [ {
        "reference": "Patient/d4540640-2561-4ebd-b7c6-15878a4dc582"
      }, {
        "reference": "Encounter/ed1417d8-8c29-466f-8183-9c9cbaeb6d27"
      }, {
        "reference": "MedicationRequest/8000c4cf-5b51-4b8c-bcb7-4824a1d68a74"
      }, {
        "reference": "DeviceRequest/96ac8b3d-6b72-4341-879e-e246ef477af4"
      }, {
        "reference": "MeasureReport/57611a8a-b6d3-480e-b425-84fbb12060e1"
      } ]
    },
    "request": {
      "method": "PUT",
      "url": "MeasureReport/c8c7f5da-7eb1-45cd-8402-7e30370ff35c"
    }
  } ]
}