{
  "resourceType": "Bundle",
  "id": "NUMFail-CervicalCytolgyAfterMP",
  "type": "transaction",
  "entry": [ {
    "fullUrl": "https://madie.cms.gov/Patient/dc5b8054-7432-4905-aaef-3acd6f3f75b9",
    "resource": {
      "resourceType": "Patient",
      "id": "dc5b8054-7432-4905-aaef-3acd6f3f75b9",
      "meta": {
        "profile": [ "http://hl7.org/fhir/us/qicore/StructureDefinition/qicore-patient" ]
      },
      "extension": [ {
        "url": "http://hl7.org/fhir/us/core/StructureDefinition/us-core-race",
        "extension": [ {
          "url": "ombCategory",
          "valueCoding": {
            "system": "urn:oid:2.16.840.1.113883.6.238",
            "code": "2028-9",
            "display": "Asian"
          }
        }, {
          "url": "text",
          "valueString": "Asian"
        } ]
      }, {
        "url": "http://hl7.org/fhir/us/core/StructureDefinition/us-core-ethnicity",
        "extension": [ {
          "url": "ombCategory",
          "valueCoding": {
            "system": "urn:oid:2.16.840.1.113883.6.238",
            "code": "2135-2",
            "display": "Hispanic or Latino"
          }
        }, {
          "url": "text",
          "valueString": "Hispanic or Latino"
        } ]
      } ],
      "identifier": [ {
        "system": "http://hospital.smarthealthit.org",
        "value": "999999995"
      } ],
      "name": [ {
        "family": "Bertha",
        "given": [ "Betty" ]
      } ],
      "gender": "female",
      "birthDate": "2002-12-31"
    },
    "request": {
      "method": "PUT",
      "url": "Patient/dc5b8054-7432-4905-aaef-3acd6f3f75b9"
    }
  }, {
    "fullUrl": "https://madie.cms.gov/Encounter/e62f19fa-ceb1-4183-b3ea-26421eeacef9",
    "resource": {
      "resourceType": "Encounter",
      "id": "e62f19fa-ceb1-4183-b3ea-26421eeacef9",
      "meta": {
        "profile": [ "http://hl7.org/fhir/us/qicore/StructureDefinition/qicore-encounter" ]
      },
      "status": "finished",
      "class": {
        "system": "http://terminology.hl7.org/CodeSystem/v3-ActCode",
        "code": "AMB",
        "display": "ambulatory"
      },
      "type": [ {
        "coding": [ {
          "system": "http://snomed.info/sct",
          "code": "185317003",
          "display": "Telephone encounter (procedure)"
        } ]
      } ],
      "subject": {
        "reference": "Patient/dc5b8054-7432-4905-aaef-3acd6f3f75b9"
      },
      "period": {
        "start": "2026-01-01T01:00:00.000+00:00",
        "end": "2026-01-01T01:15:00.000+00:00"
      }
    },
    "request": {
      "method": "PUT",
      "url": "Encounter/e62f19fa-ceb1-4183-b3ea-26421eeacef9"
    }
  }, {
    "fullUrl": "https://madie.cms.gov/Observation/2e4f1a5c-33c2-4e95-9f1a-eba3c6d844de",
    "resource": {
      "resourceType": "Observation",
      "id": "2e4f1a5c-33c2-4e95-9f1a-eba3c6d844de",
      "meta": {
        "profile": [ "http://hl7.org/fhir/us/qicore/StructureDefinition/qicore-observation" ]
      },
      "status": "final",
      "category": [ {
        "coding": [ {
          "system": "http://terminology.hl7.org/CodeSystem/observation-category",
          "code": "laboratory",
          "display": "laboratory"
        } ],
        "text": "laboratory"
      } ],
      "code": {
        "coding": [ {
          "system": "http://loinc.org",
          "code": "10524-7",
          "display": "Microscopic observation [Identifier] in Cervix by Cyto stain"
        } ]
      },
      "subject": {
        "reference": "Patient/dc5b8054-7432-4905-aaef-3acd6f3f75b9"
      },
      "effectivePeriod": {
        "start": "2027-01-01T00:00:00.000+00:00",
        "end": "2027-01-01T01:00:00.000+00:00"
      },
      "valueInteger": 1
    },
    "request": {
      "method": "PUT",
      "url": "Observation/2e4f1a5c-33c2-4e95-9f1a-eba3c6d844de"
    }
  }, {
    "fullUrl": "https://madie.cms.gov/MeasureReport/aa547cea-2d20-4375-bd88-e3857b0df7fb",
    "resource": {
      "resourceType": "MeasureReport",
      "id": "aa547cea-2d20-4375-bd88-e3857b0df7fb",
      "meta": {
        "profile": [ "http://hl7.org/fhir/us/cqfmeasures/StructureDefinition/test-case-cqfm" ]
      },
      "contained": [ {
        "resourceType": "Parameters",
        "id": "383c9ba8-ae6d-46e7-9bf2-bc49cf994103-parameters",
        "parameter": [ {
          "name": "subject",
          "valueString": "dc5b8054-7432-4905-aaef-3acd6f3f75b9"
        } ]
      } ],
      "extension": [ {
        "url": "http://hl7.org/fhir/StructureDefinition/cqf-inputParameters",
        "valueReference": {
          "reference": "#383c9ba8-ae6d-46e7-9bf2-bc49cf994103-parameters"
        }
      }, {
        "url": "http://hl7.org/fhir/us/cqfmeasures/StructureDefinition/cqfm-testCaseDescription",
        "valueMarkdown": "Female 24 years old with Cervical Cytology performed after MP"
      } ],
      "modifierExtension": [ {
        "url": "http://hl7.org/fhir/us/cqfmeasures/StructureDefinition/cqfm-isTestCase",
        "valueBoolean": true
      } ],
      "status": "complete",
      "type": "individual",
      "measure": "https://madie.cms.gov/Measure/CMS124FHIRCervicalCancerScreening",
      "period": {
        "start": "2026-01-01",
        "end": "2026-12-31"
      },
      "group": [ {
        "id": "Group_1",
        "population": [ {
          "id": "InitialPopulation_1",
          "code": {
            "coding": [ {
              "system": "http://terminology.hl7.org/CodeSystem/measure-population",
              "code": "initial-population",
              "display": "Initial Population"
            } ]
          },
          "count": 1
        }, {
          "id": "Denominator_1",
          "code": {
            "coding": [ {
              "system": "http://terminology.hl7.org/CodeSystem/measure-population",
              "code": "denominator",
              "display": "Denominator"
            } ]
          },
          "count": 1
        }, {
          "id": "DenominatorExclusion_1",
          "code": {
            "coding": [ {
              "system": "http://terminology.hl7.org/CodeSystem/measure-population",
              "code": "denominator-exclusion",
              "display": "Denominator Exclusion"
            } ]
          },
          "count": 0
        }, {
          "id": "Numerator_1",
          "code": {
            "coding": [ {
              "system": "http://terminology.hl7.org/CodeSystem/measure-population",
              "code": "numerator",
              "display": "Numerator"
            } ]
          },
          "count": 0
        } ],
        "measureScore": {
          "value": 1.0
        }
      } ],
      "evaluatedResource": [ {
        "reference": "Patient/dc5b8054-7432-4905-aaef-3acd6f3f75b9"
      }, {
        "reference": "Encounter/e62f19fa-ceb1-4183-b3ea-26421eeacef9"
      }, {
        "reference": "Observation/2e4f1a5c-33c2-4e95-9f1a-eba3c6d844de"
      } ]
    },
    "request": {
      "method": "PUT",
      "url": "MeasureReport/aa547cea-2d20-4375-bd88-e3857b0df7fb"
    }
  } ]
}