{
  "resourceType": "Bundle",
  "id": "62fbe4dbbf5132f90ee35d37",
  "type": "transaction",
  "entry": [ {
    "fullUrl": "https://madie.cms.gov/Patient/c84bf29f-80ac-4bf0-beeb-404ba96a3fa8",
    "resource": {
      "resourceType": "Patient",
      "id": "c84bf29f-80ac-4bf0-beeb-404ba96a3fa8",
      "meta": {
        "profile": [ "http://hl7.org/fhir/us/qicore/StructureDefinition/qicore-patient" ]
      },
      "extension": [ {
        "url": "http://hl7.org/fhir/us/core/StructureDefinition/us-core-race",
        "extension": [ {
          "url": "ombCategory",
          "valueCoding": {
            "system": "urn:oid:2.16.840.1.113883.6.238",
            "code": "2054-5",
            "display": "Black or African American",
            "userSelected": true
          }
        }, {
          "url": "text",
          "valueString": "Black or African American"
        } ]
      }, {
        "url": "http://hl7.org/fhir/us/core/StructureDefinition/us-core-ethnicity",
        "extension": [ {
          "url": "ombCategory",
          "valueCoding": {
            "system": "urn:oid:2.16.840.1.113883.6.238",
            "code": "2186-5",
            "display": "Not Hispanic or Latino",
            "userSelected": true
          }
        }, {
          "url": "text",
          "valueString": "Not Hispanic or Latino"
        } ]
      } ],
      "identifier": [ {
        "type": {
          "coding": [ {
            "system": "http://terminology.hl7.org/CodeSystem/v2-0203",
            "code": "MR"
          } ]
        },
        "system": "https://bonnie-fhir.healthit.gov/",
        "value": "62fbe4dbbf5132f90ee35d37"
      } ],
      "name": [ {
        "family": "DENEXFail",
        "given": [ "DischargeToHospiceFacilityAfterMP" ]
      } ],
      "gender": "male",
      "birthDate": "1946-10-15"
    },
    "request": {
      "method": "PUT",
      "url": "Patient/c84bf29f-80ac-4bf0-beeb-404ba96a3fa8"
    }
  }, {
    "fullUrl": "https://madie.cms.gov/Encounter/35825c18-f004-42b3-9b67-1bc61f37cbf7",
    "resource": {
      "resourceType": "Encounter",
      "id": "35825c18-f004-42b3-9b67-1bc61f37cbf7",
      "meta": {
        "profile": [ "http://hl7.org/fhir/us/qicore/StructureDefinition/qicore-encounter" ]
      },
      "status": "finished",
      "class": {
        "system": "http://terminology.hl7.org/CodeSystem/v3-ActCode",
        "code": "AMB",
        "display": "ambulatory"
      },
      "type": [ {
        "coding": [ {
          "system": "http://snomed.info/sct",
          "version": "2022-03",
          "code": "10197000",
          "display": "Psychiatric interview and evaluation (procedure)",
          "userSelected": true
        } ]
      } ],
      "subject": {
        "reference": "Patient/c84bf29f-80ac-4bf0-beeb-404ba96a3fa8"
      },
      "period": {
        "start": "2026-01-01T08:00:00.000+00:00",
        "end": "2026-01-01T08:15:00.000+00:00"
      }
    },
    "request": {
      "method": "PUT",
      "url": "Encounter/35825c18-f004-42b3-9b67-1bc61f37cbf7"
    }
  }, {
    "fullUrl": "https://madie.cms.gov/Observation/2e2f7ba4-83be-4b4e-bbc6-d12c7bf06b55",
    "resource": {
      "resourceType": "Observation",
      "id": "2e2f7ba4-83be-4b4e-bbc6-d12c7bf06b55",
      "meta": {
        "profile": [ "http://hl7.org/fhir/us/core/StructureDefinition/us-core-bmi" ]
      },
      "status": "final",
      "category": [ {
        "coding": [ {
          "system": "http://terminology.hl7.org/CodeSystem/observation-category",
          "code": "vital-signs",
          "display": "Vital Signs"
        } ]
      } ],
      "code": {
        "coding": [ {
          "system": "http://loinc.org",
          "code": "39156-5",
          "display": "Body mass index (BMI) [Ratio]",
          "userSelected": true
        } ]
      },
      "subject": {
        "reference": "Patient/c84bf29f-80ac-4bf0-beeb-404ba96a3fa8"
      },
      "effectiveDateTime": "2026-01-01T08:15:00.000+00:00",
      "valueQuantity": {
        "value": 25,
        "unit": "kg/m2",
        "system": "http://unitsofmeasure.org",
        "code": "kg/m2"
      }
    },
    "request": {
      "method": "PUT",
      "url": "Observation/2e2f7ba4-83be-4b4e-bbc6-d12c7bf06b55"
    }
  }, {
    "fullUrl": "https://madie.cms.gov/Procedure/fcf96bbf-c99c-4ad3-9194-43bd3f12822f",
    "resource": {
      "resourceType": "Procedure",
      "id": "fcf96bbf-c99c-4ad3-9194-43bd3f12822f",
      "meta": {
        "profile": [ "http://hl7.org/fhir/us/qicore/StructureDefinition/qicore-procedure" ]
      },
      "extension": [ {
        "url": "http://hl7.org/fhir/us/qicore/StructureDefinition/qicore-recorded",
        "valueDateTime": "2026-01-01T00:00:00.000+00:00"
      } ],
      "status": "completed",
      "code": {
        "coding": [ {
          "system": "http://snomed.info/sct",
          "version": "2022-03",
          "code": "182922004",
          "display": "Dietary regime (regime/therapy)",
          "userSelected": true
        } ]
      },
      "subject": {
        "reference": "Patient/c84bf29f-80ac-4bf0-beeb-404ba96a3fa8"
      },
      "performedDateTime": "2026-01-01T00:00:00.000+00:00",
      "reasonCode": [ {
        "coding": [ {
          "system": "http://hl7.org/fhir/sid/icd-10-cm",
          "code": "E66.01",
          "display": "Morbid (severe) obesity due to excess calories",
          "userSelected": true
        } ]
      } ]
    },
    "request": {
      "method": "PUT",
      "url": "Procedure/fcf96bbf-c99c-4ad3-9194-43bd3f12822f"
    }
  }, {
    "fullUrl": "https://madie.cms.gov/Encounter/b2460972-31a8-43ac-af8f-11eb0f1c375d",
    "resource": {
      "resourceType": "Encounter",
      "id": "b2460972-31a8-43ac-af8f-11eb0f1c375d",
      "meta": {
        "profile": [ "http://hl7.org/fhir/us/qicore/StructureDefinition/qicore-encounter" ]
      },
      "status": "finished",
      "class": {
        "system": "http://terminology.hl7.org/CodeSystem/v3-ActCode",
        "code": "AMB",
        "display": "ambulatory"
      },
      "type": [ {
        "coding": [ {
          "system": "http://snomed.info/sct",
          "version": "2022-03",
          "code": "183452005",
          "display": "Emergency hospital admission (procedure)",
          "userSelected": true
        } ]
      } ],
      "subject": {
        "reference": "Patient/c84bf29f-80ac-4bf0-beeb-404ba96a3fa8"
      },
      "period": {
        "start": "2026-12-31T00:00:00.000+00:00",
        "end": "2027-01-02T00:15:00.000+00:00"
      },
      "hospitalization": {
        "dischargeDisposition": {
          "coding": [ {
            "system": "http://snomed.info/sct",
            "code": "428361000124107",
            "display": "Discharge to home for hospice care (procedure)",
            "userSelected": true
          } ]
        }
      }
    },
    "request": {
      "method": "PUT",
      "url": "Encounter/b2460972-31a8-43ac-af8f-11eb0f1c375d"
    }
  }, {
    "fullUrl": "https://madie.cms.gov/Coverage/78a0a66e-16c2-46a3-9d01-23d41a1c19ef",
    "resource": {
      "resourceType": "Coverage",
      "id": "78a0a66e-16c2-46a3-9d01-23d41a1c19ef",
      "meta": {
        "profile": [ "http://hl7.org/fhir/us/qicore/StructureDefinition/qicore-coverage" ]
      },
      "status": "active",
      "beneficiary": {
        "reference": "Patient/c84bf29f-80ac-4bf0-beeb-404ba96a3fa8"
      },
      "payor": [ {
        "reference": "Organization/51721f7f-6b46-4bab-92d2-080ce0bb061e"
      } ]
    },
    "request": {
      "method": "PUT",
      "url": "Coverage/78a0a66e-16c2-46a3-9d01-23d41a1c19ef"
    }
  }, {
    "fullUrl": "https://madie.cms.gov/Organization/51721f7f-6b46-4bab-92d2-080ce0bb061e",
    "resource": {
      "resourceType": "Organization",
      "id": "51721f7f-6b46-4bab-92d2-080ce0bb061e",
      "meta": {
        "profile": [ "http://hl7.org/fhir/us/qicore/StructureDefinition/qicore-organization" ]
      },
      "identifier": [ {
        "use": "temp",
        "system": "urn:oid:2.16.840.1.113883.4.4",
        "value": "21-3259825"
      } ],
      "active": true,
      "type": [ {
        "coding": [ {
          "system": "http://terminology.hl7.org/CodeSystem/organization-type",
          "code": "pay",
          "display": "Payer"
        } ]
      } ],
      "name": "Blue Cross Blue Shield of Texas",
      "telecom": [ {
        "system": "phone",
        "value": "(+1) 972-766-6900"
      } ],
      "address": [ {
        "use": "billing",
        "type": "postal",
        "line": [ "P.O. Box 660044" ],
        "city": "Dallas",
        "state": "TX",
        "postalCode": "75266-0044",
        "country": "USA"
      } ]
    },
    "request": {
      "method": "PUT",
      "url": "Organization/51721f7f-6b46-4bab-92d2-080ce0bb061e"
    }
  }, {
    "fullUrl": "https://madie.cms.gov/Practitioner/6875d98a-aa0e-427a-83f5-d02fa9a4f299",
    "resource": {
      "resourceType": "Practitioner",
      "id": "6875d98a-aa0e-427a-83f5-d02fa9a4f299",
      "meta": {
        "profile": [ "http://hl7.org/fhir/us/qicore/StructureDefinition/qicore-practitioner" ]
      },
      "identifier": [ {
        "system": "http://hl7.org/fhir/sid/us-npi",
        "value": "123456"
      } ],
      "name": [ {
        "family": "Evil",
        "prefix": [ "Dr" ]
      } ]
    },
    "request": {
      "method": "PUT",
      "url": "Practitioner/6875d98a-aa0e-427a-83f5-d02fa9a4f299"
    }
  }, {
    "fullUrl": "https://madie.cms.gov/MeasureReport/bbbe7a25-5476-4930-bfa4-3c5d35ceb1d0",
    "resource": {
      "resourceType": "MeasureReport",
      "id": "bbbe7a25-5476-4930-bfa4-3c5d35ceb1d0",
      "meta": {
        "profile": [ "http://hl7.org/fhir/us/cqfmeasures/StructureDefinition/test-case-cqfm" ]
      },
      "contained": [ {
        "resourceType": "Parameters",
        "id": "537ae680-9490-4ca0-9e1a-63a823eee436-parameters",
        "parameter": [ {
          "name": "subject",
          "valueString": "c84bf29f-80ac-4bf0-beeb-404ba96a3fa8"
        } ]
      } ],
      "extension": [ {
        "url": "http://hl7.org/fhir/StructureDefinition/cqf-inputParameters",
        "valueReference": {
          "reference": "#537ae680-9490-4ca0-9e1a-63a823eee436-parameters"
        }
      }, {
        "url": "http://hl7.org/fhir/us/cqfmeasures/StructureDefinition/cqfm-testCaseDescription",
        "valueMarkdown": "Amb enc 1st day of MP, BMI high 25, Inpt enc starts last day of MP and ends 1st day of new yr., DC to home for hospice that started during MP but ends after MP. Passes NUMER as all criteria is met except the exclusion "
      } ],
      "modifierExtension": [ {
        "url": "http://hl7.org/fhir/us/cqfmeasures/StructureDefinition/cqfm-isTestCase",
        "valueBoolean": true
      } ],
      "status": "complete",
      "type": "individual",
      "measure": "https://madie.cms.gov/Measure/CMS69FHIRPCSBMIScreenAndFollowUp",
      "period": {
        "start": "2026-01-01",
        "end": "2026-12-31"
      },
      "group": [ {
        "id": "Group_1",
        "population": [ {
          "id": "InitialPopulation_1",
          "code": {
            "coding": [ {
              "system": "http://terminology.hl7.org/CodeSystem/measure-population",
              "code": "initial-population",
              "display": "Initial Population"
            } ]
          },
          "count": 1
        }, {
          "id": "Denominator_1",
          "code": {
            "coding": [ {
              "system": "http://terminology.hl7.org/CodeSystem/measure-population",
              "code": "denominator",
              "display": "Denominator"
            } ]
          },
          "count": 1
        }, {
          "id": "DenominatorExclusion_1",
          "code": {
            "coding": [ {
              "system": "http://terminology.hl7.org/CodeSystem/measure-population",
              "code": "denominator-exclusion",
              "display": "Denominator Exclusion"
            } ]
          },
          "count": 0
        }, {
          "id": "Numerator_1",
          "code": {
            "coding": [ {
              "system": "http://terminology.hl7.org/CodeSystem/measure-population",
              "code": "numerator",
              "display": "Numerator"
            } ]
          },
          "count": 1
        }, {
          "id": "DenominatorException_1",
          "code": {
            "coding": [ {
              "system": "http://terminology.hl7.org/CodeSystem/measure-population",
              "code": "denominator-exception",
              "display": "Denominator Exception"
            } ]
          },
          "count": 0
        } ],
        "measureScore": {
          "value": 1.0
        }
      } ],
      "evaluatedResource": [ {
        "reference": "Patient/c84bf29f-80ac-4bf0-beeb-404ba96a3fa8"
      }, {
        "reference": "Encounter/35825c18-f004-42b3-9b67-1bc61f37cbf7"
      }, {
        "reference": "Observation/2e2f7ba4-83be-4b4e-bbc6-d12c7bf06b55"
      }, {
        "reference": "Procedure/fcf96bbf-c99c-4ad3-9194-43bd3f12822f"
      }, {
        "reference": "Encounter/b2460972-31a8-43ac-af8f-11eb0f1c375d"
      }, {
        "reference": "Coverage/78a0a66e-16c2-46a3-9d01-23d41a1c19ef"
      }, {
        "reference": "Organization/51721f7f-6b46-4bab-92d2-080ce0bb061e"
      }, {
        "reference": "Practitioner/6875d98a-aa0e-427a-83f5-d02fa9a4f299"
      } ]
    },
    "request": {
      "method": "PUT",
      "url": "MeasureReport/bbbe7a25-5476-4930-bfa4-3c5d35ceb1d0"
    }
  } ]
}