{
  "resourceType": "Bundle",
  "id": "DENEXPass-PalliativeCareDiagnosisDuringMP",
  "type": "transaction",
  "entry": [ {
    "fullUrl": "https://madie.cms.gov/Patient/73f77133-4d08-438a-ac81-6bb858a74c31",
    "resource": {
      "resourceType": "Patient",
      "id": "73f77133-4d08-438a-ac81-6bb858a74c31",
      "meta": {
        "profile": [ "http://hl7.org/fhir/us/qicore/StructureDefinition/qicore-patient" ]
      },
      "extension": [ {
        "url": "http://hl7.org/fhir/us/core/StructureDefinition/us-core-race",
        "extension": [ {
          "url": "ombCategory",
          "valueCoding": {
            "system": "urn:oid:2.16.840.1.113883.6.238",
            "code": "2028-9",
            "display": "Asian",
            "userSelected": true
          }
        }, {
          "url": "text",
          "valueString": "Asian"
        } ]
      }, {
        "url": "http://hl7.org/fhir/us/core/StructureDefinition/us-core-ethnicity",
        "extension": [ {
          "url": "ombCategory",
          "valueCoding": {
            "system": "urn:oid:2.16.840.1.113883.6.238",
            "code": "2135-2",
            "display": "Hispanic or Latino",
            "userSelected": true
          }
        }, {
          "url": "text",
          "valueString": "Hispanic or Latino"
        } ]
      } ],
      "identifier": [ {
        "type": {
          "coding": [ {
            "system": "http://terminology.hl7.org/CodeSystem/v2-0203",
            "code": "MR"
          } ]
        },
        "system": "http://hospital.smarthealthit.org",
        "value": "999999995"
      } ],
      "name": [ {
        "family": "Bertha",
        "given": [ "Betty" ]
      } ],
      "gender": "female",
      "birthDate": "1974-12-31"
    },
    "request": {
      "method": "PUT",
      "url": "Patient/73f77133-4d08-438a-ac81-6bb858a74c31"
    }
  }, {
    "fullUrl": "https://madie.cms.gov/Encounter/a69bb47a-fcd7-4fd9-8f40-c1f6cd505611",
    "resource": {
      "resourceType": "Encounter",
      "id": "a69bb47a-fcd7-4fd9-8f40-c1f6cd505611",
      "meta": {
        "profile": [ "http://hl7.org/fhir/us/qicore/StructureDefinition/qicore-encounter" ]
      },
      "status": "finished",
      "class": {
        "system": "http://terminology.hl7.org/CodeSystem/v3-ActCode",
        "code": "AMB",
        "display": "ambulatory"
      },
      "type": [ {
        "coding": [ {
          "system": "http://snomed.info/sct",
          "code": "185463005",
          "display": "Visit out of hours (procedure)"
        } ]
      } ],
      "subject": {
        "reference": "Patient/73f77133-4d08-438a-ac81-6bb858a74c31"
      },
      "period": {
        "start": "2026-01-01T00:00:00.000+00:00",
        "end": "2026-01-01T00:00:00.000+00:00"
      }
    },
    "request": {
      "method": "PUT",
      "url": "Encounter/a69bb47a-fcd7-4fd9-8f40-c1f6cd505611"
    }
  }, {
    "fullUrl": "https://madie.cms.gov/Condition/bede8992-04d4-40d7-a459-307482289a42",
    "resource": {
      "resourceType": "Condition",
      "id": "bede8992-04d4-40d7-a459-307482289a42",
      "meta": {
        "profile": [ "http://hl7.org/fhir/us/qicore/StructureDefinition/qicore-condition-problems-health-concerns" ]
      },
      "clinicalStatus": {
        "coding": [ {
          "system": "http://terminology.hl7.org/CodeSystem/condition-clinical",
          "code": "active"
        } ]
      },
      "category": [ {
        "coding": [ {
          "system": "http://terminology.hl7.org/CodeSystem/condition-category",
          "code": "problem-list-item",
          "display": "Problem List Item"
        } ]
      } ],
      "code": {
        "coding": [ {
          "system": "http://snomed.info/sct",
          "code": "441874000",
          "display": "Seen by palliative care service (finding)"
        } ]
      },
      "subject": {
        "reference": "Patient/73f77133-4d08-438a-ac81-6bb858a74c31"
      },
      "onsetDateTime": "2024-12-31T23:59:59.000+00:00"
    },
    "request": {
      "method": "PUT",
      "url": "Condition/bede8992-04d4-40d7-a459-307482289a42"
    }
  }, {
    "fullUrl": "https://madie.cms.gov/MeasureReport/1aeede5f-b523-4e13-81fb-469144d73b8b",
    "resource": {
      "resourceType": "MeasureReport",
      "id": "1aeede5f-b523-4e13-81fb-469144d73b8b",
      "meta": {
        "profile": [ "http://hl7.org/fhir/us/cqfmeasures/StructureDefinition/test-case-cqfm" ]
      },
      "contained": [ {
        "resourceType": "Parameters",
        "id": "7ab6c434-e78b-4cc5-932c-7eb93b72585e-parameters",
        "parameter": [ {
          "name": "subject",
          "valueString": "73f77133-4d08-438a-ac81-6bb858a74c31"
        } ]
      } ],
      "extension": [ {
        "url": "http://hl7.org/fhir/StructureDefinition/cqf-inputParameters",
        "valueReference": {
          "reference": "#7ab6c434-e78b-4cc5-932c-7eb93b72585e-parameters"
        }
      }, {
        "url": "http://hl7.org/fhir/us/cqfmeasures/StructureDefinition/cqfm-testCaseDescription",
        "valueMarkdown": "Palliative care diagnosis during MP"
      } ],
      "modifierExtension": [ {
        "url": "http://hl7.org/fhir/us/cqfmeasures/StructureDefinition/cqfm-isTestCase",
        "valueBoolean": true
      } ],
      "status": "complete",
      "type": "individual",
      "measure": "https://madie.cms.gov/Measure/BreastCancerScreeningFHIR",
      "period": {
        "start": "2026-01-01",
        "end": "2026-12-31"
      },
      "group": [ {
        "id": "Group_1",
        "population": [ {
          "id": "InitialPopulation_1",
          "code": {
            "coding": [ {
              "system": "http://terminology.hl7.org/CodeSystem/measure-population",
              "code": "initial-population",
              "display": "Initial Population"
            } ]
          },
          "count": 1
        }, {
          "id": "Denominator_1",
          "code": {
            "coding": [ {
              "system": "http://terminology.hl7.org/CodeSystem/measure-population",
              "code": "denominator",
              "display": "Denominator"
            } ]
          },
          "count": 1
        }, {
          "id": "DenominatorExclusion_1",
          "code": {
            "coding": [ {
              "system": "http://terminology.hl7.org/CodeSystem/measure-population",
              "code": "denominator-exclusion",
              "display": "Denominator Exclusion"
            } ]
          },
          "count": 1
        }, {
          "id": "Numerator_1",
          "code": {
            "coding": [ {
              "system": "http://terminology.hl7.org/CodeSystem/measure-population",
              "code": "numerator",
              "display": "Numerator"
            } ]
          },
          "count": 0
        } ],
        "measureScore": {
          "value": 1
        }
      } ],
      "evaluatedResource": [ {
        "reference": "Patient/73f77133-4d08-438a-ac81-6bb858a74c31"
      }, {
        "reference": "Encounter/a69bb47a-fcd7-4fd9-8f40-c1f6cd505611"
      }, {
        "reference": "Condition/bede8992-04d4-40d7-a459-307482289a42"
      } ]
    },
    "request": {
      "method": "PUT",
      "url": "MeasureReport/1aeede5f-b523-4e13-81fb-469144d73b8b"
    }
  }, {
    "fullUrl": "https://madie.cms.gov/MeasureReport/1d3ca7b3-e58c-4628-b2d6-d454676f83c7",
    "resource": {
      "resourceType": "MeasureReport",
      "id": "1d3ca7b3-e58c-4628-b2d6-d454676f83c7",
      "meta": {
        "profile": [ "http://hl7.org/fhir/us/cqfmeasures/StructureDefinition/test-case-cqfm" ]
      },
      "contained": [ {
        "resourceType": "Parameters",
        "id": "a39636cd-31be-442f-82d5-2c8bd5ce10b9-parameters",
        "parameter": [ {
          "name": "subject",
          "valueString": "73f77133-4d08-438a-ac81-6bb858a74c31"
        } ]
      } ],
      "extension": [ {
        "url": "http://hl7.org/fhir/StructureDefinition/cqf-inputParameters",
        "valueReference": {
          "reference": "#a39636cd-31be-442f-82d5-2c8bd5ce10b9-parameters"
        }
      }, {
        "url": "http://hl7.org/fhir/us/cqfmeasures/StructureDefinition/cqfm-testCaseDescription",
        "valueMarkdown": "Palliative care diagnosis during MP"
      } ],
      "modifierExtension": [ {
        "url": "http://hl7.org/fhir/us/cqfmeasures/StructureDefinition/cqfm-isTestCase",
        "valueBoolean": true
      } ],
      "status": "complete",
      "type": "individual",
      "measure": "https://madie.cms.gov/Measure/CMS125FHIRBreastCancerScreening",
      "period": {
        "start": "2026-01-01",
        "end": "2026-12-31"
      },
      "group": [ {
        "id": "Group_1",
        "population": [ {
          "id": "InitialPopulation_1",
          "code": {
            "coding": [ {
              "system": "http://terminology.hl7.org/CodeSystem/measure-population",
              "code": "initial-population",
              "display": "Initial Population"
            } ]
          },
          "count": 1
        }, {
          "id": "Denominator_1",
          "code": {
            "coding": [ {
              "system": "http://terminology.hl7.org/CodeSystem/measure-population",
              "code": "denominator",
              "display": "Denominator"
            } ]
          },
          "count": 1
        }, {
          "id": "DenominatorExclusion_1",
          "code": {
            "coding": [ {
              "system": "http://terminology.hl7.org/CodeSystem/measure-population",
              "code": "denominator-exclusion",
              "display": "Denominator Exclusion"
            } ]
          },
          "count": 1
        }, {
          "id": "Numerator_1",
          "code": {
            "coding": [ {
              "system": "http://terminology.hl7.org/CodeSystem/measure-population",
              "code": "numerator",
              "display": "Numerator"
            } ]
          },
          "count": 0
        } ],
        "measureScore": {
          "value": 1.0
        },
        "stratifier": [ {
          "id": "Stratification_1_1",
          "code": [ {
            "text": "Stratification 1"
          } ],
          "stratum": [ {
            "value": {
              "text": "true"
            },
            "population": [ {
              "id": "InitialPopulation_1",
              "code": {
                "coding": [ {
                  "system": "http://terminology.hl7.org/CodeSystem/measure-population",
                  "code": "initial-population",
                  "display": "Initial Population"
                } ]
              },
              "count": 0
            }, {
              "id": "Denominator_1",
              "code": {
                "coding": [ {
                  "system": "http://terminology.hl7.org/CodeSystem/measure-population",
                  "code": "denominator",
                  "display": "Denominator"
                } ]
              },
              "count": 0
            }, {
              "id": "DenominatorExclusion_1",
              "code": {
                "coding": [ {
                  "system": "http://terminology.hl7.org/CodeSystem/measure-population",
                  "code": "denominator-exclusion",
                  "display": "Denominator Exclusion"
                } ]
              },
              "count": 0
            }, {
              "id": "Numerator_1",
              "code": {
                "coding": [ {
                  "system": "http://terminology.hl7.org/CodeSystem/measure-population",
                  "code": "numerator",
                  "display": "Numerator"
                } ]
              },
              "count": 0
            } ]
          }, {
            "value": {
              "text": "false"
            },
            "population": [ {
              "id": "InitialPopulation_1",
              "code": {
                "coding": [ {
                  "system": "http://terminology.hl7.org/CodeSystem/measure-population",
                  "code": "initial-population",
                  "display": "Initial Population"
                } ]
              },
              "count": 1
            }, {
              "id": "Denominator_1",
              "code": {
                "coding": [ {
                  "system": "http://terminology.hl7.org/CodeSystem/measure-population",
                  "code": "denominator",
                  "display": "Denominator"
                } ]
              },
              "count": 1
            }, {
              "id": "DenominatorExclusion_1",
              "code": {
                "coding": [ {
                  "system": "http://terminology.hl7.org/CodeSystem/measure-population",
                  "code": "denominator-exclusion",
                  "display": "Denominator Exclusion"
                } ]
              },
              "count": 1
            }, {
              "id": "Numerator_1",
              "code": {
                "coding": [ {
                  "system": "http://terminology.hl7.org/CodeSystem/measure-population",
                  "code": "numerator",
                  "display": "Numerator"
                } ]
              },
              "count": 1
            } ]
          } ]
        }, {
          "id": "Stratification_1_2",
          "code": [ {
            "text": "Stratification 2"
          } ],
          "stratum": [ {
            "value": {
              "text": "true"
            },
            "population": [ {
              "id": "InitialPopulation_1",
              "code": {
                "coding": [ {
                  "system": "http://terminology.hl7.org/CodeSystem/measure-population",
                  "code": "initial-population",
                  "display": "Initial Population"
                } ]
              },
              "count": 1
            }, {
              "id": "Denominator_1",
              "code": {
                "coding": [ {
                  "system": "http://terminology.hl7.org/CodeSystem/measure-population",
                  "code": "denominator",
                  "display": "Denominator"
                } ]
              },
              "count": 1
            }, {
              "id": "DenominatorExclusion_1",
              "code": {
                "coding": [ {
                  "system": "http://terminology.hl7.org/CodeSystem/measure-population",
                  "code": "denominator-exclusion",
                  "display": "Denominator Exclusion"
                } ]
              },
              "count": 1
            }, {
              "id": "Numerator_1",
              "code": {
                "coding": [ {
                  "system": "http://terminology.hl7.org/CodeSystem/measure-population",
                  "code": "numerator",
                  "display": "Numerator"
                } ]
              },
              "count": 0
            } ]
          }, {
            "value": {
              "text": "false"
            },
            "population": [ {
              "id": "InitialPopulation_1",
              "code": {
                "coding": [ {
                  "system": "http://terminology.hl7.org/CodeSystem/measure-population",
                  "code": "initial-population",
                  "display": "Initial Population"
                } ]
              },
              "count": 0
            }, {
              "id": "Denominator_1",
              "code": {
                "coding": [ {
                  "system": "http://terminology.hl7.org/CodeSystem/measure-population",
                  "code": "denominator",
                  "display": "Denominator"
                } ]
              },
              "count": 0
            }, {
              "id": "DenominatorExclusion_1",
              "code": {
                "coding": [ {
                  "system": "http://terminology.hl7.org/CodeSystem/measure-population",
                  "code": "denominator-exclusion",
                  "display": "Denominator Exclusion"
                } ]
              },
              "count": 0
            }, {
              "id": "Numerator_1",
              "code": {
                "coding": [ {
                  "system": "http://terminology.hl7.org/CodeSystem/measure-population",
                  "code": "numerator",
                  "display": "Numerator"
                } ]
              },
              "count": 1
            } ]
          } ]
        } ]
      } ],
      "evaluatedResource": [ {
        "reference": "Patient/73f77133-4d08-438a-ac81-6bb858a74c31"
      }, {
        "reference": "Encounter/a69bb47a-fcd7-4fd9-8f40-c1f6cd505611"
      }, {
        "reference": "Condition/bede8992-04d4-40d7-a459-307482289a42"
      }, {
        "reference": "MeasureReport/1aeede5f-b523-4e13-81fb-469144d73b8b"
      } ]
    },
    "request": {
      "method": "PUT",
      "url": "MeasureReport/1d3ca7b3-e58c-4628-b2d6-d454676f83c7"
    }
  } ]
}